Time,Extension,Load
(sec),(mm),(N)
0.00000,0.00000,0.00873
0.10000,-0.01638,0.02970
0.20000,-0.05076,0.05452
0.30000,-0.08538,0.06219
0.40000,-0.11802,0.01983
0.50000,-0.14917,0.00189
0.60000,-0.17979,0.02508
0.70000,-0.20992,0.02327
0.80000,-0.24005,0.00423
0.90000,-0.27007,0.01083
1.00000,-0.29996,0.01064
1.10000,-0.32998,-0.00483
1.20000,-0.36011,0.00722
1.30000,-0.39007,0.04126
1.40000,-0.42026,-0.01042
1.50000,-0.45010,-0.00071
1.60000,-0.48005,0.04533
1.70000,-0.50994,0.00354
1.80000,-0.54002,0.01467
1.90000,-0.56997,0.02081
2.00000,-0.59999,0.04586
2.10000,-0.63000,0.05088
2.20000,-0.66002,-0.00044
2.30000,-0.68991,-0.02894
2.40000,-0.72004,0.01003
2.50000,-0.74994,-0.12156
2.60000,-0.78007,-0.89486
2.70000,-0.80997,-1.71617
2.80000,-0.84004,-2.90342
2.90000,-0.86994,-4.15299
3.00000,-0.89995,-5.43902
3.10000,-0.92991,-6.88381
3.20000,-0.95992,-8.61106
3.30000,-0.98993,-10.32523
3.40000,-1.02001,-12.05201
3.50000,-1.05002,-14.19158
3.60000,-1.08004,-16.25453
3.70000,-1.10999,-18.46201
3.80000,-1.14001,-20.74363
3.90000,-1.17002,-22.24852
4.00000,-1.19998,-24.53086
4.10000,-1.23005,-25.63505
4.20000,-1.26006,-26.92274
4.30000,-1.29002,-28.45939
4.40000,-1.31997,-30.44458
4.50000,-1.34999,-32.45531
4.60000,-1.37994,-34.47174
4.70000,-1.40996,-36.76265
4.80000,-1.43991,-39.10309
4.90000,-1.46992,-41.59069
5.00000,-1.50000,-44.03748
5.10000,-1.53001,-46.47765
5.20000,-1.56003,-49.02279
5.30000,-1.58998,-51.52865
5.40000,-1.62000,-54.01029
5.50000,-1.65001,-56.55325
5.60000,-1.68008,-59.09200
5.70000,-1.71004,-61.68983
5.80000,-1.74005,-64.17046
5.90000,-1.77013,-66.86384
6.00000,-1.79996,-69.42085
6.10000,-1.82998,-71.97774
6.20000,-1.85999,-74.58789
6.30000,-1.88995,-77.17785
6.40000,-1.91984,-79.76899
6.50000,-1.94997,-82.40025
6.60000,-1.97999,-84.99520
6.70000,-2.00988,-87.58613
6.80000,-2.03996,-90.21016
6.90000,-2.06997,-92.78706
7.00000,-2.09999,-95.44295
7.10000,-2.13000,-98.04465
7.20000,-2.15996,-100.64289
7.30000,-2.19003,-103.29577
7.40000,-2.22004,-105.94911
7.50000,-2.25012,-108.57038
7.60000,-2.27995,-111.14579
7.70000,-2.31003,-113.71396
7.80000,-2.34010,-116.39385
7.90000,-2.37000,-118.99452
8.00000,-2.40007,-121.57276
8.10000,-2.43008,-124.19422
8.20000,-2.45998,-126.79493
8.30000,-2.48999,-129.44475
8.40000,-2.51989,-132.11340
8.50000,-2.54996,-134.77160
8.60000,-2.57986,-137.36691
8.70000,-2.60993,-139.97248
8.80000,-2.63995,-142.54697
8.90000,-2.66984,-145.17333
9.00000,-2.69997,-147.85058
9.10000,-2.72999,-150.46681
9.20000,-2.76000,-153.12386
9.30000,-2.79002,-155.65666
9.40000,-2.82003,-158.31007
9.50000,-2.85011,-160.95731
9.60000,-2.88000,-163.57007
9.70000,-2.91007,-166.16721
9.80000,-2.93991,-168.76085
9.90000,-2.97004,-171.37669
10.00000,-2.99994,-173.97437
10.10000,-3.03001,-176.61514
10.20000,-3.06003,-179.19786
10.30000,-3.08980,-181.73257
10.40000,-3.11940,-184.27400
10.50000,-3.14977,-186.91797
10.60000,-3.18008,-189.62931
10.70000,-3.21034,-192.24089
10.80000,-3.24035,-194.83067
10.90000,-3.27025,-197.43275
11.00000,-3.30008,-200.01873
11.10000,-3.32998,-202.60062
11.20000,-3.35999,-205.21520
11.30000,-3.38995,-207.84069
11.40000,-3.41996,-210.35757
11.50000,-3.44991,-212.91889
11.60000,-3.47993,-215.48674
11.70000,-3.51006,-218.06976
11.80000,-3.54002,-220.65066
11.90000,-3.57003,-223.15752
12.00000,-3.60005,-225.77392
12.10000,-3.63006,-228.33865
12.20000,-3.65989,-230.94025
12.30000,-3.68991,-233.46391
12.40000,-3.71998,-236.03382
12.50000,-3.75000,-238.63092
12.60000,-3.78007,-241.20975
12.70000,-3.80997,-243.74885
12.80000,-3.84010,-246.27510
12.90000,-3.87005,-248.86740
13.00000,-3.90001,-251.48915
13.10000,-3.93008,-254.04029
13.20000,-3.96010,-256.56834
13.30000,-3.98999,-259.14337
13.40000,-4.02007,-261.73186
13.50000,-4.04996,-264.25384
13.60000,-4.08004,-266.79588
13.70000,-4.10999,-269.37654
13.80000,-4.14006,-271.92751
13.90000,-4.17008,-274.50472
14.00000,-4.20009,-277.05038
14.10000,-4.23005,-279.53317
14.20000,-4.25994,-282.08815
14.30000,-4.28990,-284.61630
14.40000,-4.31991,-287.09807
14.50000,-4.34999,-289.62115
14.60000,-4.37988,-292.10189
14.70000,-4.40995,-294.58268
14.80000,-4.44003,-297.09216
14.90000,-4.46992,-299.65319
15.00000,-4.49994,-302.16683
15.10000,-4.53001,-304.66374
15.20000,-4.55997,-307.10675
15.30000,-4.58998,-309.63760
15.40000,-4.61999,-312.23293
15.50000,-4.64995,-314.75160
15.60000,-4.68002,-317.20337
15.70000,-4.70998,-319.67506
15.80000,-4.73999,-322.21742
15.90000,-4.76995,-324.66937
16.00000,-4.80002,-327.17425
16.10000,-4.83004,-329.64934
16.20000,-4.86005,-332.15668
16.30000,-4.89000,-334.64767
16.40000,-4.92002,-337.12421
16.50000,-4.95003,-339.57440
16.60000,-4.97999,-342.06830
16.70000,-5.01000,-344.56022
16.80000,-5.04002,-346.92392
16.90000,-5.07015,-349.41681
17.00000,-5.09998,-351.87766
17.10000,-5.13012,-354.37316
17.20000,-5.16007,-356.88449
17.30000,-5.19009,-359.38106
17.40000,-5.22004,-361.80731
17.50000,-5.25006,-364.28209
17.60000,-5.27995,-366.73594
17.70000,-5.31003,-369.11726
17.80000,-5.34004,-371.55736
17.90000,-5.36999,-374.05636
18.00000,-5.40001,-376.45310
18.10000,-5.43002,-378.87834
18.20000,-5.45998,-381.29047
18.30000,-5.49011,-383.68806
18.40000,-5.52001,-386.15581
18.50000,-5.55014,-388.54875
18.60000,-5.57992,-390.96370
18.70000,-5.60999,-393.41576
18.80000,-5.64000,-395.82849
18.90000,-5.66990,-398.23469
19.00000,-5.69991,-400.58576
19.10000,-5.73005,-402.98373
19.20000,-5.75994,-405.41135
19.30000,-5.79008,-407.72118
19.40000,-5.81997,-410.07999
19.50000,-5.85004,-412.43557
19.60000,-5.87994,-414.74406
19.70000,-5.90995,-417.07113
19.80000,-5.94003,-419.40898
19.90000,-5.96986,-421.68587
20.00000,-6.00006,-424.02130
20.10000,-6.02995,-426.32923
20.20000,-6.06002,-428.62333
20.30000,-6.08998,-430.87896
20.40000,-6.11999,-433.18994
20.50000,-6.15001,-435.53431
20.60000,-6.17990,-437.86258
20.70000,-6.21004,-440.13638
20.80000,-6.23993,-442.35725
20.90000,-6.26989,-444.62539
21.00000,-6.29996,-446.91771
21.10000,-6.32997,-449.19815
21.20000,-6.36011,-451.46327
21.30000,-6.39000,-453.67867
21.40000,-6.41996,-455.97188
21.50000,-6.45003,-458.17804
21.60000,-6.47999,-460.37357
21.70000,-6.51000,-462.62793
21.80000,-6.53995,-464.85908
21.90000,-6.57003,-467.16239
22.00000,-6.59998,-469.31595
22.10000,-6.63006,-471.60778
22.20000,-6.65995,-473.72911
22.30000,-6.68997,-475.94305
22.40000,-6.71998,-478.19834
22.50000,-6.74994,-480.36270
22.60000,-6.77995,-482.50537
22.70000,-6.80996,-484.71946
22.80000,-6.83998,-486.86359
22.90000,-6.86993,-489.05626
23.00000,-6.89995,-491.24107
23.10000,-6.92996,-493.36374
23.20000,-6.95992,-495.56740
23.30000,-6.98987,-497.72967
23.40000,-7.02006,-499.93441
23.50000,-7.04996,-502.00526
23.60000,-7.08003,-504.15907
23.70000,-7.10999,-506.25660
23.80000,-7.14000,-508.35472
23.90000,-7.16996,-510.49311
24.00000,-7.19997,-512.59298
24.10000,-7.23005,-514.66227
24.20000,-7.26000,-516.74783
24.30000,-7.29001,-518.89550
24.40000,-7.32009,-520.99604
24.50000,-7.35004,-523.04909
24.60000,-7.38006,-525.12765
24.70000,-7.41001,-527.22197
24.80000,-7.43997,-529.24577
24.90000,-7.46986,-531.35663
25.00000,-7.49993,-533.38327
25.10000,-7.52989,-535.38617
25.20000,-7.55996,-537.44223
25.30000,-7.58992,-539.50295
25.40000,-7.61999,-541.52973
25.50000,-7.64995,-543.53818
25.60000,-7.68002,-545.55856
25.70000,-7.70998,-547.58202
25.80000,-7.73999,-549.62005
25.90000,-7.76994,-551.61063
26.00000,-7.80008,-553.65305
26.10000,-7.82997,-555.58611
26.20000,-7.86005,-557.58312
26.30000,-7.89000,-559.64891
26.40000,-7.92014,-561.69488
26.50000,-7.95009,-563.64816
26.60000,-7.98004,-565.60900
26.70000,-8.01006,-567.56977
26.80000,-8.03989,-569.54913
26.90000,-8.06991,-571.57036
27.00000,-8.09992,-573.47678
27.10000,-8.12994,-575.43825
27.20000,-8.15989,-577.39433
27.30000,-8.18997,-579.40546
27.40000,-8.22004,-581.32879
27.50000,-8.25005,-583.25421
27.60000,-8.28001,-585.18324
27.70000,-8.31002,-587.11886
27.80000,-8.34010,-589.00289
27.90000,-8.36999,-590.92626
28.00000,-8.40007,-592.87108
28.10000,-8.42990,-594.71648
28.20000,-8.46004,-596.61787
28.30000,-8.49005,-598.49434
28.40000,-8.52000,-600.44277
28.50000,-8.55014,-602.32338
28.60000,-8.58003,-604.27092
28.70000,-8.61011,-606.05925
28.80000,-8.64000,-607.89701
28.90000,-8.66996,-609.78342
29.00000,-8.69997,-611.62807
29.10000,-8.73004,-613.47444
29.20000,-8.75994,-615.28534
29.30000,-8.79007,-617.05247
29.40000,-8.82003,-618.83867
29.50000,-8.85010,-620.68991
29.60000,-8.88000,-622.45492
29.70000,-8.91007,-624.20480
29.80000,-8.94002,-626.11826
29.90000,-8.97004,-627.88568
30.00000,-9.00005,-629.74006
30.10000,-9.03001,-631.45690
30.20000,-9.05990,-633.21583
30.30000,-9.08998,-634.90815
30.40000,-9.11999,-636.52322
30.50000,-9.15001,-638.19051
30.60000,-9.18008,-639.76370
30.70000,-9.21015,-640.57931
30.80000,-9.24005,-642.07584
30.90000,-9.27000,-642.88169
31.00000,-9.30002,-644.21147
31.10000,-9.32997,-645.73243
31.20000,-9.35993,-647.08985
31.30000,-9.39006,-648.43118
31.40000,-9.41996,-649.72982
31.50000,-9.45003,-651.19095
31.60000,-9.47998,-652.74410
31.70000,-9.51006,-654.19853
31.80000,-9.54001,-655.40597
31.90000,-9.56997,-656.68963
32.00000,-9.59998,-657.91108
32.10000,-9.63000,-658.71581
32.20000,-9.66007,-659.25911
32.30000,-9.69002,-660.36329
32.40000,-9.71998,-661.45413
32.50000,-9.74999,-662.04630
32.60000,-9.78001,-662.99230
32.70000,-9.80996,-663.36535
32.80000,-9.84004,-664.50827
32.90000,-9.87005,-665.58704
33.00000,-9.90012,-666.79344
33.10000,-9.93002,-668.02226
33.20000,-9.95997,-669.07384
33.30000,-9.98999,-669.19588
33.40000,-10.02000,-670.09330
33.50000,-10.05002,-670.74090
33.60000,-10.08003,-667.69540
33.70000,-10.11005,-664.53964
33.80000,-10.14000,-662.44148
33.90000,-10.17001,-660.92327
34.00000,-10.19997,-658.82720
34.10000,-10.23004,-657.32948
34.20000,-10.26006,-656.33185
34.30000,-10.29001,-655.99039
34.40000,-10.32003,-655.97840
34.50000,-10.34992,-655.30412
34.60000,-10.38000,-655.23706
34.70000,-10.40995,-654.94902
34.80000,-10.44002,-653.82227
34.90000,-10.46998,-651.88974
35.00000,-10.50005,-651.53278
35.10000,-10.52995,-651.30286
35.20000,-10.56002,-651.11250
35.30000,-10.58992,-650.89397
35.40000,-10.61999,-650.85024
35.50000,-10.64995,-650.85530
35.60000,-10.67990,-649.99506
35.70000,-10.71003,-648.78359
35.80000,-10.73987,-648.62132
35.90000,-10.77006,-648.09442
36.00000,-10.80002,-645.94962
36.10000,-10.83003,-644.69680
36.20000,-10.86005,-643.51887
36.30000,-10.88994,-642.06317
36.40000,-10.92007,-640.90088
36.50000,-10.94997,-638.86486
36.60000,-10.98010,-634.26197
36.70000,-11.01006,-632.54841
36.80000,-11.04001,-631.09577
36.90000,-11.06997,-629.86232
37.00000,-11.09998,-628.73892
37.10000,-11.12994,-626.77473
37.20000,-11.16007,-625.09283
37.30000,-11.18996,-623.44559
37.40000,-11.21998,-621.96083
37.50000,-11.24993,-620.73514
37.60000,-11.28001,-619.36084
37.70000,-11.30996,-617.84696
37.80000,-11.33998,-616.69428
37.90000,-11.36999,-615.18244
38.00000,-11.40006,-614.17770
38.10000,-11.43002,-613.07304
38.20000,-11.46003,-612.06594
38.30000,-11.48999,-609.23647
38.40000,-11.52006,-606.63849
38.50000,-11.55008,-604.74690
38.60000,-11.58003,-603.51383
38.70000,-11.61005,-601.29803
38.80000,-11.64000,-600.07643
38.90000,-11.67001,-599.14142
39.00000,-11.69997,-598.40266
39.10000,-11.72998,-597.71672
39.20000,-11.76000,-597.11490
39.30000,-11.79001,-596.45135
39.40000,-11.82003,-595.75621
39.50000,-11.84998,-595.23705
39.60000,-11.87999,-594.78395
39.70000,-11.91001,-594.37446
39.80000,-11.93996,-593.92128
39.90000,-11.96998,-593.61607
40.00000,-12.00005,-593.26634
40.10000,-12.02995,-592.93978
40.20000,-12.06002,-592.62302
40.30000,-12.09010,-592.22560
40.40000,-12.12005,-591.56757
40.50000,-12.15006,-591.24786
40.60000,-12.18008,-590.96638
40.70000,-12.21009,-590.65904
40.80000,-12.24005,-589.93179
40.90000,-12.27006,-589.65813
41.00000,-12.30008,-589.32636
41.10000,-12.32997,-588.79714
41.20000,-12.35992,-587.81531
41.30000,-12.39006,-587.36369
41.40000,-12.41989,-586.86808
41.50000,-12.45003,-586.33171
41.60000,-12.47998,-585.38947
41.70000,-12.51006,-584.48453
41.80000,-12.53995,-583.84564
41.90000,-12.57002,-583.24888
42.00000,-12.59998,-582.55855
42.10000,-12.62999,-581.33028
42.20000,-12.65995,-580.34237
42.30000,-12.69014,-578.24656
42.40000,-12.72004,-575.55810
42.50000,-12.75005,-571.81470
42.60000,-12.78007,-569.10899
42.70000,-12.81002,-566.81328
42.80000,-12.84003,-564.76418
42.90000,-12.86999,-562.64237
43.00000,-12.89994,-560.31890
43.10000,-12.92996,-557.16038
43.20000,-12.96003,-554.18521
43.30000,-12.98999,-551.69825
43.40000,-13.01994,-549.40354
43.50000,-13.05007,-547.41658
43.60000,-13.07997,-545.52115
43.70000,-13.10998,-543.89399
43.80000,-13.13994,-542.23865
43.90000,-13.17001,-540.68826
44.00000,-13.19991,-539.20835
44.10000,-13.22998,-537.49356
44.20000,-13.25994,-535.72092
44.30000,-13.28995,-534.19642
44.40000,-13.31996,-532.70463
44.50000,-13.34998,-531.28455
44.60000,-13.37993,-529.78724
44.70000,-13.41001,-528.24348
44.80000,-13.44008,-526.73701
44.90000,-13.47010,-525.25740
45.00000,-13.50005,-523.74847
45.10000,-13.53006,-522.42342
45.20000,-13.56002,-521.20320
45.30000,-13.58997,-520.04028
45.40000,-13.62011,-518.86905
45.50000,-13.65000,-517.68485
45.60000,-13.68008,-516.55389
45.70000,-13.70997,-515.46793
45.80000,-13.73999,-514.36063
45.90000,-13.77000,-513.34798
46.00000,-13.79995,-512.43264
46.10000,-13.82997,-511.50475
46.20000,-13.86004,-510.60554
46.30000,-13.89000,-509.79823
46.40000,-13.92013,-509.01610
46.50000,-13.94997,-508.20585
46.60000,-13.97998,-507.45573
46.70000,-14.00999,-506.73220
46.80000,-14.04007,-506.01657
46.90000,-14.06996,-505.34271
47.00000,-14.09992,-504.62153
47.10000,-14.12999,-503.91380
47.20000,-14.16007,-503.31879
47.30000,-14.18990,-502.59195
47.40000,-14.21998,-501.93664
47.50000,-14.24999,-501.29373
47.60000,-14.28001,-500.64217
47.70000,-14.31002,-499.94998
47.80000,-14.33985,-499.17005
47.90000,-14.36999,-498.24335
48.00000,-14.39988,-497.26974
48.10000,-14.42996,-496.50136
48.20000,-14.46003,-495.76499
48.30000,-14.48999,-495.13314
48.40000,-14.52000,-494.52413
48.50000,-14.55001,-493.83093
48.60000,-14.58015,-493.11634
48.70000,-14.61004,-492.47853
48.80000,-14.64006,-491.90167
48.90000,-14.67007,-491.39332
49.00000,-14.70003,-490.86537
49.10000,-14.73004,-490.32819
49.20000,-14.75999,-489.85153
49.30000,-14.78995,-489.40044
49.40000,-14.82008,-488.90542
49.50000,-14.84998,-488.54612
49.60000,-14.87999,-488.08120
49.70000,-14.90995,-487.66665
49.80000,-14.94008,-487.30195
49.90000,-14.96998,-486.90826
50.00000,-14.99999,-486.54348
50.10000,-15.02994,-486.11715
50.20000,-15.05990,-485.74995
50.30000,-15.08997,-485.34799
50.40000,-15.11993,-484.99323
50.50000,-15.15006,-484.66120
50.60000,-15.18002,-484.27448
50.70000,-15.21009,-483.90102
50.80000,-15.23998,-483.60046
50.90000,-15.27006,-483.26179
51.00000,-15.30001,-482.81960
51.10000,-15.33003,-482.41895
51.20000,-15.36004,-482.13586
51.30000,-15.39000,-481.68965
51.40000,-15.42001,-481.27826
51.50000,-15.44997,-480.94615
51.60000,-15.48004,-480.61781
51.70000,-15.50999,-480.29520
51.80000,-15.54007,-480.01111
51.90000,-15.57008,-479.69595
52.00000,-15.60004,-479.39286
52.10000,-15.62993,-479.11331
52.20000,-15.65983,-478.83149
52.30000,-15.68990,-478.64906
52.40000,-15.71986,-478.32303
52.50000,-15.74999,-478.00735
52.60000,-15.78000,-477.63746
52.70000,-15.81002,-477.34171
52.80000,-15.84003,-477.09592
52.90000,-15.87005,-476.80058
53.00000,-15.90000,-476.55609
53.10000,-15.93007,-476.29330
53.20000,-15.96003,-476.09001
53.30000,-15.99010,-475.79952
53.40000,-16.01994,-475.63754
53.50000,-16.05001,-475.42270
53.60000,-16.07997,-475.18305
53.70000,-16.10998,-474.98625
53.80000,-16.14000,-474.70484
53.90000,-16.16995,-474.50084
54.00000,-16.19997,-474.23296
54.10000,-16.22998,-474.06483
54.20000,-16.25993,-473.93177
54.30000,-16.29007,-473.73921
54.40000,-16.31996,-473.56725
54.50000,-16.35004,-473.43332
54.60000,-16.37999,-473.20295
54.70000,-16.41001,-473.06452
54.80000,-16.44008,-472.93834
54.90000,-16.47010,-472.77648
55.00000,-16.50011,-472.63235
55.10000,-16.53006,-472.46478
55.20000,-16.55996,-472.34152
55.30000,-16.58997,-472.19675
55.40000,-16.61999,-471.93464
55.50000,-16.65000,-471.73977
55.60000,-16.67995,-471.54564
55.70000,-16.71003,-471.41224
55.80000,-16.74004,-471.14585
55.90000,-16.77006,-470.94531
56.00000,-16.80001,-470.78643
56.10000,-16.83015,-470.65303
56.20000,-16.86004,-470.53326
56.30000,-16.89000,-470.41409
56.40000,-16.92007,-470.29000
56.50000,-16.95002,-470.19351
56.60000,-16.97998,-470.06637
56.70000,-17.00999,-469.94433
56.80000,-17.03995,-469.79185
56.90000,-17.07002,-469.54881
57.00000,-17.10004,-469.30935
57.10000,-17.13005,-469.12100
57.20000,-17.16007,-468.95571
57.30000,-17.19002,-468.78863
57.40000,-17.22003,-468.54716
57.50000,-17.24999,-468.42255
57.60000,-17.28000,-468.25826
57.70000,-17.30996,-468.11946
57.80000,-17.33997,-467.97834
57.90000,-17.36999,-467.83872
58.00000,-17.40000,-467.79204
58.10000,-17.43001,-467.62805
58.20000,-17.46009,-467.46913
58.30000,-17.49004,-467.36710
58.40000,-17.52006,-467.32146
58.50000,-17.55007,-467.22375
58.60000,-17.58009,-467.13244
58.70000,-17.61004,-467.09657
58.80000,-17.63982,-467.01923
58.90000,-17.66977,-467.00299
59.00000,-17.69979,-466.93340
59.10000,-17.73016,-466.92684
59.20000,-17.76029,-466.87845
59.30000,-17.79013,-466.73935
59.40000,-17.82014,-466.69681
59.50000,-17.84998,-466.61288
59.60000,-17.88005,-466.57499
59.70000,-17.91000,-466.11179
59.80000,-17.94002,-465.98852
59.90000,-17.96997,-465.91710
60.00000,-17.99993,-465.88752
60.10000,-18.03000,-465.89520
60.20000,-18.05996,-465.90537
60.30000,-18.08991,-465.88004
60.40000,-18.11998,-465.90149
60.50000,-18.15000,-465.82565
60.60000,-18.17995,-465.56734
60.70000,-18.21003,-465.54688
60.80000,-18.23986,-465.47502
60.90000,-18.26988,-465.51123
61.00000,-18.29989,-465.37429
61.10000,-18.32997,-465.27464
61.20000,-18.35986,-465.02635
61.30000,-18.38994,-452.63857
61.40000,-18.41995,-452.02136
61.50000,-18.44996,-451.33915
61.60000,-18.47998,-450.79354
61.70000,-18.50999,-450.37888
61.80000,-18.54001,-449.97461
61.90000,-18.56990,-449.67920
62.00000,-18.59998,-449.45341
62.10000,-18.62993,-449.27578
62.20000,-18.66000,-449.08170
62.30000,-18.69008,-448.87986
62.40000,-18.72009,-448.65236
62.50000,-18.75011,-448.43949
62.60000,-18.78006,-448.08142
62.70000,-18.81008,-445.39649
62.80000,-18.84009,-444.32405
62.90000,-18.87011,-443.72641
63.00000,-18.89994,-443.27792
63.10000,-18.93001,-442.59008
63.20000,-18.95997,-441.62445
63.30000,-18.99010,-441.07530
63.39000,-19.01701,-428.46285
63.42200,-19.02669,-415.72805
63.46600,-19.03991,-401.36658
63.47400,-19.04224,-387.88959
63.48000,-19.04397,-374.66828
63.48600,-19.04577,-361.34131
63.49400,-19.04822,-344.38156
63.50000,-19.05007,-325.40735
63.50400,-19.05127,-309.93734
63.50800,-19.05246,-293.78781
63.51200,-19.05372,-277.90464
63.51600,-19.05485,-262.91311
63.52000,-19.05605,-249.01645
63.52400,-19.05725,-236.29665
63.53000,-19.05904,-219.78917
63.53600,-19.06083,-206.24971
63.54400,-19.06322,-192.58985
63.55600,-19.06681,-179.62150
63.56600,-19.06980,-164.92341
63.57200,-19.07160,-149.24533
63.57800,-19.07339,-131.94123
63.58400,-19.07524,-115.39965
63.59000,-19.07704,-101.04356
63.59800,-19.07955,-86.30011
63.61000,-19.08307,-72.68401
63.67800,-19.10358,-59.85942
63.73600,-19.12080,-47.35346
63.83600,-19.15094,-45.05108
63.92200,-19.17664,-31.27356
63.94400,-19.18310,-18.11652
64.04401,-19.21318,-15.38548
64.14400,-19.24319,-14.93618
64.24400,-19.27315,-15.11993
64.34400,-19.30322,-15.11418
64.44400,-19.33323,-15.02295
64.54401,-19.36331,-15.04417
64.64400,-19.39320,-14.93656
64.74400,-19.42316,-14.88972
64.84400,-19.45317,-14.76594
64.94400,-19.48313,-14.85176
65.04401,-19.51320,-14.85802
65.14400,-19.54328,-14.80191
65.24400,-19.57317,-14.69027
65.34400,-19.60324,-14.52456
65.44400,-19.63326,-14.50802
65.54401,-19.66327,-14.39732
65.64401,-19.69317,-14.44694
65.74400,-19.72336,-14.42464
65.84400,-19.75325,-14.39117
65.94400,-19.78321,-14.48297
66.04401,-19.81317,-14.45892
66.14401,-19.84318,-13.78473
66.24400,-19.87319,-13.67178
66.34400,-19.90315,-13.65785
66.44400,-19.93328,-13.69654
66.54401,-19.96324,-13.63794
66.64401,-19.99319,-13.67898
66.74400,-20.02314,-13.68894
66.84400,-20.05316,-13.65302
66.94400,-20.08323,-13.67996
67.04401,-20.11325,-13.66371
67.14401,-20.14314,-13.60202
67.24400,-20.17322,-13.61325
67.34400,-20.20323,-13.60985
67.44400,-20.23325,-13.62540
67.54401,-20.26320,-13.55445
67.64401,-20.29316,-13.56447
67.74400,-20.32317,-13.43162
67.84400,-20.35318,-13.48193
67.94400,-20.38320,-13.41653
68.04401,-20.41321,-13.42565
68.14401,-20.44317,-13.46007
68.24400,-20.47318,-13.38119
68.34400,-20.50314,-13.39544
68.44400,-20.53321,-13.39343
68.54401,-20.56323,-13.38867
68.64401,-20.59318,-13.39412
68.74400,-20.62319,-13.37042
68.84400,-20.65327,-13.40214
68.94400,-20.68322,-13.40132
69.04401,-20.71318,-13.41931
69.14401,-20.74319,-13.42160
69.24400,-20.77327,-13.40083
69.34400,-20.80322,-13.39118
69.44400,-20.83329,-13.29168
69.54401,-20.86319,-13.26134
69.64401,-20.89326,-13.30151
69.74400,-20.92316,-13.15825
69.76601,-20.92979,-13.14308
