Time,Extension,Load
(sec),(mm),(N)
0.00000,0.00000,-0.06857
0.10000,-0.01638,0.00151
0.20000,-0.05070,0.11414
0.30000,-0.08538,0.07150
0.40000,-0.11802,0.05839
0.50000,-0.14917,0.00591
0.60000,-0.17979,0.04565
0.70000,-0.20998,0.02516
0.80000,-0.24005,0.01480
0.90000,-0.27013,0.01795
1.00000,-0.30008,0.02159
1.10000,-0.33010,0.03802
1.20000,-0.36017,-0.00833
1.30000,-0.39001,0.00818
1.40000,-0.42014,0.04759
1.50000,-0.45004,0.02753
1.60000,-0.47999,0.04746
1.70000,-0.50994,0.05810
1.80000,-0.53996,-0.01251
1.90000,-0.56997,0.04389
2.00000,-0.59999,0.02607
2.10000,-0.62994,0.04773
2.20000,-0.66002,0.02680
2.30000,-0.68991,-0.03354
2.40000,-0.72004,0.03375
2.50000,-0.74994,-0.04800
2.60000,-0.78001,-0.74008
2.70000,-0.80997,-2.06137
2.80000,-0.84004,-3.44551
2.90000,-0.86994,-4.95581
3.00000,-0.89995,-6.70736
3.10000,-0.92997,-8.52881
3.20000,-0.95992,-10.35697
3.30000,-0.98993,-12.29130
3.40000,-1.01995,-14.22118
3.50000,-1.04996,-16.26253
3.60000,-1.08004,-18.15255
3.70000,-1.10999,-20.12882
3.80000,-1.14001,-22.07287
3.90000,-1.17002,-23.74870
4.00000,-1.20004,-23.93668
4.10000,-1.23005,-23.90809
4.20000,-1.26006,-24.29168
4.30000,-1.29002,-25.91484
4.40000,-1.31997,-27.73796
4.50000,-1.34999,-29.72807
4.60000,-1.37994,-31.65238
4.70000,-1.40996,-33.63003
4.80000,-1.43985,-35.56767
4.90000,-1.46998,-37.49996
5.00000,-1.50000,-39.46634
5.10000,-1.53001,-41.35903
5.20000,-1.56003,-43.25219
5.30000,-1.59004,-45.16360
5.40000,-1.62000,-47.07423
5.50000,-1.65001,-49.08425
5.60000,-1.68008,-50.94923
5.70000,-1.71004,-52.91977
5.80000,-1.73999,-54.91002
5.90000,-1.77007,-56.93180
6.00000,-1.79996,-58.94928
6.10000,-1.82998,-60.85246
6.20000,-1.85999,-62.86408
6.30000,-1.88995,-64.79424
6.40000,-1.91984,-66.73459
6.50000,-1.94997,-68.67634
6.60000,-1.97999,-70.71726
6.70000,-2.00994,-72.64879
6.80000,-2.03996,-74.62230
6.90000,-2.06997,-76.57144
7.00000,-2.09999,-78.56627
7.10000,-2.13000,-80.53479
7.20000,-2.15996,-82.49620
7.30000,-2.19009,-84.43078
7.40000,-2.22004,-86.35267
7.50000,-2.25012,-88.27616
7.60000,-2.27995,-90.27316
7.70000,-2.31003,-92.17149
7.80000,-2.34016,-94.11144
7.90000,-2.36994,-96.00407
8.00000,-2.40007,-97.95968
8.10000,-2.43002,-99.85312
8.20000,-2.46004,-101.81575
8.30000,-2.49005,-103.66020
8.40000,-2.51995,-105.61134
8.50000,-2.55002,-107.46064
8.60000,-2.57992,-109.36854
8.70000,-2.60999,-111.26563
8.80000,-2.64001,-113.16665
8.90000,-2.66990,-115.03034
9.00000,-2.70003,-116.85681
9.10000,-2.72999,-118.71120
9.20000,-2.75994,-120.60707
9.30000,-2.79002,-122.47561
9.40000,-2.81997,-124.36965
9.50000,-2.84999,-126.17027
9.60000,-2.88000,-127.98856
9.70000,-2.91001,-129.86549
9.80000,-2.93985,-131.69638
9.90000,-2.97004,-133.48840
10.00000,-2.99994,-135.37360
10.10000,-3.03001,-137.15647
10.20000,-3.05997,-138.95260
10.30000,-3.08998,-140.78046
10.40000,-3.11994,-142.58266
10.50000,-3.14995,-144.36177
10.60000,-3.17996,-146.17231
10.70000,-3.21004,-147.91322
10.80000,-3.24005,-149.73194
10.90000,-3.27007,-151.49591
11.00000,-3.30008,-153.31420
11.10000,-3.32998,-155.03707
11.20000,-3.35999,-156.82954
11.30000,-3.38989,-158.53683
11.40000,-3.41990,-160.27199
11.50000,-3.44991,-162.01254
11.60000,-3.47999,-163.75611
11.70000,-3.51006,-165.50967
11.80000,-3.54002,-167.25607
11.90000,-3.57009,-168.95261
12.00000,-3.60005,-170.68954
12.10000,-3.63012,-172.37823
12.20000,-3.65995,-174.09829
12.30000,-3.68991,-175.74709
12.40000,-3.71998,-177.44021
12.50000,-3.74994,-179.12220
12.60000,-3.78007,-180.80467
12.70000,-3.80997,-182.50292
12.80000,-3.84010,-184.22756
12.90000,-3.86999,-185.88582
13.00000,-3.90001,-187.51664
13.10000,-3.93008,-189.15180
13.20000,-3.96010,-190.80199
13.30000,-3.98999,-192.48927
13.40000,-4.02013,-194.15027
13.50000,-4.04996,-195.82117
13.60000,-4.08004,-197.40917
13.70000,-4.10999,-199.06243
13.80000,-4.14006,-200.61921
13.90000,-4.17008,-202.22604
14.00000,-4.20009,-203.87597
14.10000,-4.23005,-205.47573
14.20000,-4.26000,-207.03103
14.30000,-4.28990,-208.58981
14.40000,-4.31997,-210.17861
14.50000,-4.34999,-211.72773
14.60000,-4.37994,-213.35570
14.70000,-4.41001,-214.93962
14.80000,-4.44003,-216.49009
14.90000,-4.46992,-218.06832
15.00000,-4.49994,-219.58195
15.10000,-4.53001,-221.10030
15.20000,-4.55997,-222.70547
15.30000,-4.59004,-224.29785
15.40000,-4.61999,-225.81052
15.50000,-4.64995,-227.39373
15.60000,-4.68002,-228.86818
15.70000,-4.70998,-230.42837
15.80000,-4.74005,-231.97008
15.90000,-4.76995,-233.50729
16.00000,-4.80002,-235.11337
16.10000,-4.83004,-236.55498
16.20000,-4.85999,-238.11687
16.30000,-4.88994,-239.57048
16.40000,-4.92002,-241.13778
16.50000,-4.95003,-242.67191
16.60000,-4.97999,-244.18635
16.70000,-5.01000,-245.69122
16.80000,-5.04002,-247.21341
16.90000,-5.07009,-248.74497
17.00000,-5.09998,-250.17079
17.10000,-5.13012,-251.67409
17.20000,-5.16007,-253.16164
17.30000,-5.19009,-254.63365
17.40000,-5.22004,-256.16864
17.50000,-5.25006,-257.63400
17.60000,-5.28001,-259.16044
17.70000,-5.30997,-260.56176
17.80000,-5.34004,-262.06357
17.90000,-5.36999,-263.55224
18.00000,-5.40001,-265.02943
18.10000,-5.43002,-266.47160
18.20000,-5.45998,-267.94724
18.30000,-5.49005,-269.35153
18.40000,-5.52007,-270.81462
18.50000,-5.55014,-272.25647
18.60000,-5.57997,-273.73102
18.70000,-5.60999,-275.15773
18.80000,-5.64000,-276.62819
18.90000,-5.66990,-278.09341
19.00000,-5.69997,-279.50764
19.10000,-5.73005,-280.90864
19.20000,-5.75994,-282.29615
19.30000,-5.79008,-283.73232
19.40000,-5.81997,-285.13426
19.50000,-5.85004,-286.56468
19.60000,-5.87994,-287.93521
19.70000,-5.90995,-289.40074
19.80000,-5.94003,-290.78459
19.90000,-5.96986,-292.13587
20.00000,-6.00006,-293.57465
20.10000,-6.02989,-294.94433
20.20000,-6.06002,-296.35275
20.30000,-6.08998,-297.72431
20.40000,-6.11999,-299.10401
20.50000,-6.15001,-300.46985
20.60000,-6.17990,-301.83315
20.70000,-6.21004,-303.24392
20.80000,-6.23993,-304.58974
20.90000,-6.26995,-305.99570
21.00000,-6.29996,-307.32837
21.10000,-6.32997,-308.66221
21.20000,-6.36005,-310.05090
21.30000,-6.39000,-311.29599
21.40000,-6.41996,-312.69241
21.50000,-6.45003,-313.93830
21.60000,-6.47999,-315.31177
21.70000,-6.51000,-316.64781
21.80000,-6.53995,-317.99693
21.90000,-6.57003,-319.33580
22.00000,-6.59998,-320.60105
22.10000,-6.63000,-321.93761
22.20000,-6.65995,-323.19505
22.30000,-6.68997,-324.43248
22.40000,-6.71998,-325.80007
22.50000,-6.74994,-327.03996
22.60000,-6.77995,-328.33926
22.70000,-6.80996,-329.65112
22.80000,-6.84004,-330.92421
22.90000,-6.86999,-332.16052
23.00000,-6.89995,-333.45588
23.10000,-6.92996,-334.68068
23.20000,-6.95992,-335.97566
23.30000,-6.98993,-337.19987
23.40000,-7.02006,-338.50335
23.50000,-7.04996,-339.74301
23.60000,-7.08003,-340.94758
23.70000,-7.10993,-342.19179
23.80000,-7.13994,-343.37182
23.90000,-7.16996,-344.58742
24.00000,-7.19991,-345.78554
24.10000,-7.23005,-347.01932
24.20000,-7.26000,-348.21719
24.30000,-7.29001,-349.39338
24.40000,-7.32009,-350.62805
24.50000,-7.34998,-351.78833
24.60000,-7.38006,-352.97845
24.70000,-7.41001,-354.11533
24.80000,-7.43997,-355.27449
24.90000,-7.46992,-356.44993
25.00000,-7.49993,-357.60976
25.10000,-7.52989,-358.73145
25.20000,-7.55996,-359.88893
25.30000,-7.58992,-361.00261
25.40000,-7.61993,-362.10626
25.50000,-7.64995,-363.24821
25.60000,-7.68008,-364.35824
25.70000,-7.70992,-365.51248
25.80000,-7.73999,-366.64661
25.90000,-7.76989,-367.77835
26.00000,-7.80002,-368.86271
26.10000,-7.82985,-369.94193
26.20000,-7.85993,-371.03496
26.30000,-7.89006,-372.06117
26.40000,-7.92026,-372.51376
26.50000,-7.95015,-373.48788
26.60000,-7.98004,-374.43213
26.70000,-8.01006,-375.38718
26.80000,-8.03995,-376.38973
26.90000,-8.06997,-377.40514
27.00000,-8.09992,-378.42564
27.10000,-8.13000,-379.36121
27.20000,-8.15989,-380.34644
27.30000,-8.18997,-381.27825
27.40000,-8.22004,-382.24667
27.50000,-8.24999,-383.17185
27.60000,-8.28001,-384.19072
27.70000,-8.31002,-384.99258
27.80000,-8.34010,-385.85600
27.90000,-8.36987,-386.57382
28.00000,-8.39995,-387.35613
28.10000,-8.42996,-388.24625
28.20000,-8.46015,-389.13157
28.30000,-8.48993,-390.02605
28.40000,-8.51994,-390.90633
28.50000,-8.55014,-391.76069
28.60000,-8.58009,-392.62217
28.70000,-8.61011,-393.44627
28.80000,-8.64006,-394.36925
28.90000,-8.67002,-395.24436
29.00000,-8.69997,-396.10904
29.10000,-8.73004,-396.97107
29.20000,-8.75994,-397.92418
29.30000,-8.79007,-398.76580
29.40000,-8.82003,-399.40424
29.50000,-8.85004,-400.04060
29.60000,-8.88000,-400.78461
29.70000,-8.91013,-401.46600
29.80000,-8.94002,-402.00476
29.90000,-8.97004,-402.26825
30.00000,-9.00005,-402.47943
30.10000,-9.03001,-402.21777
30.20000,-9.05990,-402.48174
30.30000,-9.08998,-402.97028
30.40000,-9.11999,-403.45971
30.50000,-9.15001,-404.02249
30.60000,-9.18008,-403.42074
30.70000,-9.21015,-403.87850
30.80000,-9.24005,-403.63450
30.90000,-9.27000,-403.78820
31.00000,-9.30002,-403.73165
31.10000,-9.32997,-403.88636
31.20000,-9.35987,-403.49413
31.30000,-9.39006,-403.42905
31.40000,-9.41996,-402.14248
31.50000,-9.45003,-401.56871
31.60000,-9.47998,-399.23824
31.70000,-9.51000,-397.81775
31.80000,-9.54001,-397.24384
31.90000,-9.56997,-396.74185
32.00000,-9.59998,-396.24579
32.10000,-9.63000,-395.82781
32.20000,-9.66007,-395.68018
32.30000,-9.69002,-395.68838
32.40000,-9.71998,-395.43808
32.50000,-9.74999,-395.34017
32.60000,-9.77995,-395.35437
32.70000,-9.81002,-395.36119
32.80000,-9.84004,-395.40719
32.90000,-9.87005,-394.96623
33.00000,-9.90006,-394.93840
33.10000,-9.93002,-394.93885
33.20000,-9.96003,-393.70980
33.30000,-9.98999,-392.61278
33.40000,-10.02000,-392.03845
33.50000,-10.05002,-391.73611
33.60000,-10.07997,-391.45309
33.70000,-10.11005,-391.19035
33.80000,-10.14000,-390.79312
33.90000,-10.17001,-389.97438
34.00000,-10.20003,-389.26147
34.10000,-10.22998,-388.81820
34.20000,-10.26006,-388.40279
34.30000,-10.28995,-387.99450
34.40000,-10.32003,-387.61612
34.50000,-10.34992,-387.26792
34.60000,-10.38000,-387.01791
34.70000,-10.40995,-386.80844
34.80000,-10.43997,-386.64501
34.90000,-10.46998,-386.49913
35.00000,-10.50005,-386.21355
35.10000,-10.52989,-385.92413
35.20000,-10.55996,-385.68269
35.30000,-10.58992,-385.36634
35.40000,-10.61999,-385.13970
35.50000,-10.64989,-384.91789
35.60000,-10.67984,-384.65850
35.70000,-10.71009,-384.29689
35.80000,-10.73999,-383.97186
35.90000,-10.77012,-383.55719
36.00000,-10.80002,-383.12212
36.10000,-10.83003,-381.21745
36.20000,-10.86005,-380.82171
36.30000,-10.88994,-380.20145
36.40000,-10.92007,-379.94388
36.50000,-10.94997,-379.59255
36.60000,-10.98004,-379.11542
36.70000,-11.01006,-378.85107
36.80000,-11.03995,-378.45414
36.90000,-11.06997,-378.13976
37.00000,-11.09992,-377.96240
37.10000,-11.12994,-377.21395
37.20000,-11.16007,-376.86996
37.30000,-11.19002,-376.61318
37.40000,-11.21998,-376.30159
37.50000,-11.24993,-376.06910
37.60000,-11.28001,-375.78378
37.70000,-11.30996,-375.29528
37.80000,-11.33998,-374.98292
37.90000,-11.36999,-374.60197
38.00000,-11.40006,-374.22094
38.10000,-11.42996,-373.91756
38.20000,-11.46003,-373.81593
38.30000,-11.48999,-373.49768
38.40000,-11.52006,-373.17060
38.50000,-11.55008,-372.74398
38.60000,-11.58003,-372.22870
38.70000,-11.61005,-372.00026
38.80000,-11.64000,-371.45223
38.90000,-11.67001,-371.20681
39.00000,-11.69997,-370.92827
39.10000,-11.72998,-370.49133
39.20000,-11.76000,-370.21160
39.30000,-11.79001,-369.98734
39.40000,-11.82003,-369.71334
39.50000,-11.84998,-369.29358
39.60000,-11.87999,-369.03612
39.70000,-11.91001,-368.83108
39.80000,-11.93996,-368.58216
39.90000,-11.96998,-368.34393
40.00000,-12.00005,-367.89045
40.10000,-12.02995,-367.62971
40.20000,-12.06002,-367.31765
40.30000,-12.09010,-366.74377
40.40000,-12.12005,-366.10849
40.50000,-12.15006,-364.94274
40.60000,-12.18008,-364.26585
40.70000,-12.21009,-363.75321
40.80000,-12.24005,-363.08363
40.90000,-12.27000,-362.27521
41.00000,-12.30008,-361.71049
41.10000,-12.32997,-361.34869
41.20000,-12.35992,-361.05268
41.30000,-12.39006,-360.66208
41.40000,-12.41995,-360.30900
41.50000,-12.44997,-359.69071
41.60000,-12.47998,-359.35402
41.70000,-12.51006,-359.11478
41.80000,-12.54001,-358.85401
41.90000,-12.57002,-358.53177
42.00000,-12.59992,-358.19065
42.10000,-12.62999,-357.92917
42.20000,-12.65995,-357.68185
42.30000,-12.69008,-357.12384
42.40000,-12.72004,-356.40061
42.50000,-12.75005,-355.99295
42.60000,-12.78007,-355.70245
42.70000,-12.80996,-355.52695
42.80000,-12.84003,-355.25702
42.90000,-12.86993,-355.06222
43.00000,-12.89994,-354.84925
43.10000,-12.92996,-354.52075
43.20000,-12.96003,-353.99709
43.30000,-12.98999,-353.39464
43.40000,-13.01994,-346.87590
43.50000,-13.05001,-344.94702
43.60000,-13.07997,-342.77935
43.70000,-13.11004,-340.98566
43.80000,-13.13994,-337.48288
43.90000,-13.17001,-335.54964
44.00000,-13.19991,-334.06440
44.10000,-13.22998,-329.41990
44.20000,-13.25988,-320.98696
44.28800,-13.28636,-308.43852
44.38800,-13.31632,-304.30457
44.48800,-13.34639,-300.60243
44.58800,-13.37641,-298.26110
44.68800,-13.40636,-296.78930
44.78800,-13.43637,-295.57569
44.88800,-13.46645,-294.59810
44.98800,-13.49646,-293.74674
45.08800,-13.52648,-293.07367
45.18800,-13.55637,-292.52367
45.28800,-13.58645,-291.96821
45.38800,-13.61640,-291.39657
45.48800,-13.64648,-290.56896
45.58800,-13.67637,-289.81248
45.68800,-13.70644,-289.11542
45.78800,-13.73646,-288.63814
45.88800,-13.76641,-288.26065
45.98800,-13.79631,-287.83357
46.08800,-13.82650,-287.45789
46.18800,-13.85634,-287.14504
46.28800,-13.88641,-286.80908
46.38800,-13.91642,-286.43064
46.48800,-13.94650,-286.11487
46.58800,-13.97639,-285.86015
46.68800,-14.00641,-285.65846
46.78800,-14.03648,-285.49910
46.88800,-14.06644,-285.27478
46.98800,-14.09639,-285.18194
47.08800,-14.12635,-285.03018
47.18800,-14.15630,-284.90534
47.28800,-14.18637,-284.68970
47.38800,-14.21639,-284.44398
47.48800,-14.24640,-284.13039
47.58800,-14.27636,-283.87757
47.68800,-14.30637,-283.60400
47.78800,-14.33627,-283.35623
47.88800,-14.36634,-283.10668
47.98800,-14.39630,-282.89625
48.08800,-14.42643,-282.69520
48.18800,-14.45644,-282.60782
48.28800,-14.48646,-282.45317
48.38800,-14.51647,-282.36622
48.48800,-14.54643,-282.29121
48.58800,-14.57650,-282.19031
48.68800,-14.60645,-281.85083
48.78800,-14.63647,-281.43493
48.88800,-14.66648,-281.22976
48.98800,-14.69644,-281.11478
49.08800,-14.72639,-281.10111
49.18800,-14.75653,-281.07841
49.28800,-14.78636,-281.02662
49.38800,-14.81644,-281.04048
49.48800,-14.84639,-281.03158
49.58800,-14.87634,-281.04663
49.68800,-14.90630,-280.96505
49.78800,-14.93649,-280.81425
49.88800,-14.96639,-280.69628
49.98800,-14.99634,-280.63454
50.08800,-15.02636,-280.66572
50.18800,-15.05631,-280.56206
50.28800,-15.08633,-280.54787
50.38800,-15.11640,-280.50078
50.48800,-15.14641,-280.43306
50.58800,-15.17643,-280.46597
50.68800,-15.20644,-280.41765
50.78800,-15.23652,-280.42026
50.88800,-15.26641,-280.35004
50.98800,-15.29637,-280.32968
51.08800,-15.32644,-280.26640
51.18800,-15.35645,-280.14248
51.28800,-15.38635,-279.98727
51.38800,-15.41654,-279.71959
51.48800,-15.44638,-279.37578
51.58800,-15.47645,-279.17713
51.68800,-15.50647,-279.02445
51.78800,-15.53636,-278.91267
51.88800,-15.56649,-278.71827
51.98800,-15.59639,-278.64473
52.08800,-15.62628,-278.45966
52.18800,-15.65630,-278.31979
52.28800,-15.68631,-278.15482
52.38800,-15.71627,-277.83802
52.48800,-15.74634,-277.65565
52.58800,-15.77636,-277.48223
52.68800,-15.80649,-277.28340
52.78800,-15.83645,-277.11157
52.88800,-15.86640,-276.89535
52.98800,-15.89647,-276.74098
53.08800,-15.92643,-276.50086
53.18800,-15.95644,-276.34149
53.28800,-15.98640,-276.08883
53.38800,-16.01641,-275.86175
53.48800,-16.04637,-275.43068
53.58800,-16.07638,-267.88335
53.68800,-16.10633,-267.71570
53.78800,-16.13653,-267.17924
53.88800,-16.16636,-266.88838
53.98800,-16.19638,-266.48704
54.08800,-16.22633,-264.57550
54.18800,-16.25629,-262.40893
54.28800,-16.28636,-260.19620
54.38800,-16.31638,-259.97790
54.48800,-16.34645,-259.74760
54.58800,-16.37634,-259.61149
54.68800,-16.40642,-259.52145
54.78800,-16.43643,-259.41966
54.88800,-16.46645,-259.38556
54.98800,-16.49646,-259.34787
55.08800,-16.52648,-259.28976
55.18800,-16.55637,-259.28389
55.28800,-16.58645,-259.19320
55.38800,-16.61634,-259.12859
55.48800,-16.64635,-259.08761
55.58800,-16.67637,-259.05050
55.68800,-16.70632,-259.08181
55.78800,-16.73652,-259.09269
55.88800,-16.76641,-259.09275
55.98800,-16.79642,-259.06993
56.08800,-16.82650,-259.06932
56.18800,-16.85639,-259.10178
56.28800,-16.88647,-259.13924
56.38800,-16.91636,-259.18378
56.48800,-16.94644,-259.26104
56.58800,-16.97633,-259.32392
56.68800,-17.00635,-259.36255
56.78800,-17.03636,-259.48426
56.88800,-17.06638,-259.49461
56.98800,-17.09645,-259.60907
57.08800,-17.12652,-259.71927
57.18800,-17.15636,-259.79688
57.28800,-17.18649,-259.83900
57.38800,-17.21639,-259.85850
57.48800,-17.24646,-259.80135
57.58800,-17.27636,-259.59671
57.68800,-17.30643,-259.57946
57.78800,-17.33638,-259.52611
57.88800,-17.36640,-259.42860
57.98800,-17.39635,-259.36926
58.08800,-17.42649,-259.30021
58.18800,-17.45644,-259.09368
58.28800,-17.48646,-259.01604
58.38800,-17.51647,-258.80000
58.48800,-17.54648,-258.75635
58.58800,-17.57650,-258.67447
58.68800,-17.60651,-258.50885
58.78800,-17.63641,-258.12382
58.88800,-17.66636,-257.93949
58.98800,-17.69638,-257.38006
59.08800,-17.72639,-256.96224
59.18800,-17.75641,-256.60705
59.28800,-17.78648,-256.30182
59.38800,-17.81643,-256.08853
59.48800,-17.84645,-255.90010
59.58800,-17.87640,-255.71184
59.68800,-17.90636,-255.47817
59.78800,-17.93643,-255.38951
59.88800,-17.96639,-255.22454
59.98800,-17.99634,-255.09072
60.08800,-18.02647,-255.06265
60.18800,-18.05637,-254.98869
60.28800,-18.08633,-254.88209
60.38800,-18.11640,-253.20455
60.48800,-18.14641,-252.03200
60.58800,-18.17637,-251.62976
60.68800,-18.20644,-251.20426
60.78800,-18.23640,-250.91823
60.88800,-18.26635,-250.73681
60.98800,-18.29636,-250.41491
61.08800,-18.32632,-250.19694
61.18800,-18.35639,-249.57780
61.28800,-18.38635,-249.11826
61.38800,-18.41648,-248.86930
61.48800,-18.44644,-248.71003
61.58800,-18.47645,-248.47649
61.68800,-18.50641,-248.27501
61.78800,-18.53642,-247.92600
61.88800,-18.56631,-247.64920
61.98800,-18.59645,-247.52146
62.08800,-18.62628,-247.44732
62.18800,-18.65648,-247.37282
62.28800,-18.68643,-247.24746
62.38800,-18.71651,-247.07196
62.48800,-18.74640,-246.88726
62.58800,-18.77641,-246.84180
62.68800,-18.80643,-246.73108
62.78800,-18.83638,-246.46046
62.88800,-18.86640,-246.24187
62.98800,-18.89641,-246.16143
63.08800,-18.92637,-246.01931
63.18800,-18.95638,-245.87281
63.28800,-18.98640,-245.77163
63.38800,-19.01635,-245.34425
63.48800,-19.04636,-245.31541
63.58800,-19.07638,-245.20403
63.68800,-19.10639,-244.98438
63.78800,-19.13641,-244.79302
63.88800,-19.16642,-244.59079
63.98800,-19.19638,-244.28425
64.08800,-19.22639,-244.12477
64.18800,-19.25635,-243.91228
64.28800,-19.28642,-243.76597
64.38800,-19.31643,-243.52198
64.48801,-19.34639,-243.41404
64.58800,-19.37646,-242.77244
64.68800,-19.40642,-242.51664
64.78800,-19.43637,-242.17885
64.88800,-19.46638,-241.73059
64.98801,-19.49634,-241.37454
65.08800,-19.52641,-239.71027
65.18800,-19.55637,-239.34817
65.28800,-19.58638,-238.93703
65.38800,-19.61640,-238.49541
65.48801,-19.64641,-237.88450
65.58801,-19.67637,-237.69319
65.68800,-19.70650,-237.41901
65.78800,-19.73652,-237.17236
65.88800,-19.76641,-236.98902
65.98801,-19.79642,-236.77208
66.08801,-19.82632,-236.62038
66.18800,-19.85639,-236.40994
66.28800,-19.88641,-236.22748
66.38800,-19.91636,-236.08841
66.48801,-19.94649,-235.83449
66.58801,-19.97639,-235.55456
66.68800,-20.00641,-235.34380
66.78800,-20.03636,-235.08348
66.88800,-20.06637,-234.79942
66.98801,-20.09645,-234.62914
67.08801,-20.12646,-234.44550
67.18800,-20.15642,-234.34728
67.28800,-20.18649,-234.20021
67.38800,-20.21638,-233.94939
67.48801,-20.24646,-233.73870
67.58801,-20.27642,-233.48792
67.68800,-20.30637,-233.41730
67.78800,-20.33644,-233.29062
67.88800,-20.36640,-233.09374
67.98801,-20.39647,-232.99942
68.08801,-20.42637,-232.77871
68.18800,-20.45638,-232.72993
68.28800,-20.48639,-232.52640
68.38800,-20.51641,-232.33511
68.48801,-20.54636,-232.05729
68.58801,-20.57644,-231.32196
68.68800,-20.60639,-230.07579
68.78800,-20.63641,-227.27769
68.88800,-20.66648,-226.91023
68.98801,-20.69643,-226.79888
69.08801,-20.72645,-226.65557
69.18800,-20.75640,-226.67248
69.28800,-20.78648,-226.73836
69.38800,-20.81637,-226.74423
69.48801,-20.84645,-226.73456
69.58801,-20.87634,-226.82462
69.68800,-20.90648,-226.85966
69.78800,-20.93631,-226.91499
69.88800,-20.96644,-226.93409
69.98801,-20.99634,-226.95385
70.08801,-21.02641,-227.00602
70.18800,-21.05643,-226.96337
70.28800,-21.08644,-226.99762
70.38800,-21.11640,-226.89845
70.48801,-21.14641,-226.92040
70.58801,-21.17648,-226.87430
70.68800,-21.20638,-226.85530
70.78800,-21.23645,-226.80189
70.88800,-21.26641,-226.75799
70.98801,-21.29648,-226.72115
71.08801,-21.32638,-226.63891
71.18800,-21.35639,-226.58365
71.28800,-21.38640,-226.47973
71.38800,-21.41642,-226.40785
71.48801,-21.44649,-226.11119
71.58801,-21.47639,-225.81154
71.68800,-21.50640,-225.67179
71.78800,-21.53630,-225.56728
71.88800,-21.56643,-225.54869
71.98801,-21.59627,-225.38619
72.08801,-21.62628,-225.16465
72.18800,-21.65648,-225.15014
72.28800,-21.68637,-225.00554
72.38800,-21.71638,-224.84038
72.48801,-21.74646,-224.69526
72.58801,-21.77647,-224.53811
72.68800,-21.80643,-224.42985
72.78800,-21.83644,-224.18883
72.88800,-21.86640,-224.02138
72.98801,-21.89647,-223.80471
73.08801,-21.92636,-223.65140
73.18800,-21.95650,-223.49142
73.28800,-21.98639,-223.25791
73.38800,-22.01647,-223.02531
73.48801,-22.04636,-222.73052
73.58801,-22.07638,-222.45396
73.68800,-22.10633,-222.30152
73.78800,-22.13635,-222.10425
73.88800,-22.16642,-221.97239
73.98801,-22.19637,-221.89101
74.08801,-22.22633,-221.69601
74.18800,-22.25640,-221.70648
74.28800,-22.28642,-221.56056
74.38800,-22.31637,-221.43675
74.48801,-22.34633,-221.42855
74.58801,-22.37646,-221.23013
74.68800,-22.40642,-221.15190
74.78800,-22.43637,-220.95477
74.88800,-22.46638,-220.50826
74.98801,-22.49640,-220.18678
75.08801,-22.52641,-220.06871
75.18800,-22.55649,-219.83519
75.28800,-22.58638,-219.71175
75.38800,-22.61646,-219.40252
75.48801,-22.64641,-219.24673
75.58801,-22.67630,-219.06279
75.68800,-22.70632,-218.97299
75.78800,-22.73633,-218.76372
75.88800,-22.76641,-218.79613
75.98801,-22.79642,-218.73204
76.08801,-22.82644,-218.55948
76.18800,-22.85639,-218.55429
76.28800,-22.88640,-218.36791
76.38800,-22.91636,-218.24740
76.48801,-22.94643,-218.11068
76.58801,-22.97645,-218.03869
76.68800,-23.00640,-217.91503
76.78800,-23.03642,-217.80364
76.88800,-23.06643,-217.50040
76.98801,-23.09645,-217.51186
77.08801,-23.12652,-217.53855
77.18800,-23.15641,-217.53242
77.28800,-23.18643,-217.44445
77.38800,-23.21644,-217.17135
77.48801,-23.24640,-217.06076
77.58801,-23.27629,-216.89145
77.68800,-23.30637,-216.68715
77.78800,-23.33626,-216.45892
77.88800,-23.36634,-216.20151
77.98801,-23.39635,-216.01053
78.08801,-23.42642,-215.79536
78.18800,-23.45644,-215.56638
78.28800,-23.48645,-215.23286
78.38800,-23.51641,-215.05278
78.48801,-23.54642,-214.85193
78.58801,-23.57638,-214.54820
78.68800,-23.60639,-214.34698
78.78800,-23.63640,-214.13013
78.88800,-23.66648,-213.88993
78.98801,-23.69643,-213.77657
79.08801,-23.72645,-213.55238
79.18800,-23.75646,-213.41057
79.28800,-23.78647,-213.20658
79.38800,-23.81637,-213.07075
79.48801,-23.84639,-212.86996
79.58801,-23.87640,-212.55087
79.68800,-23.90629,-212.37785
79.78800,-23.93637,-212.05811
79.88800,-23.96632,-211.79110
79.98801,-23.99628,-211.60701
80.08801,-24.02641,-211.53748
80.18800,-24.05636,-211.42123
80.28800,-24.08638,-211.39001
80.38800,-24.11640,-211.24789
80.48801,-24.14641,-211.14690
80.58801,-24.17636,-211.07879
80.68800,-24.20632,-210.99722
80.78800,-24.23639,-210.97645
80.88800,-24.26641,-210.87550
80.98801,-24.29642,-210.76024
81.08801,-24.32643,-210.62644
81.18800,-24.35651,-210.59500
81.28800,-24.38646,-210.42611
81.38800,-24.41642,-210.26317
81.48801,-24.44649,-210.12405
81.58801,-24.47639,-209.94673
81.68800,-24.50646,-209.78497
81.78800,-24.53636,-209.74379
81.88800,-24.56637,-209.49960
81.98801,-24.59638,-209.29338
82.08801,-24.62640,-209.02077
82.18800,-24.65635,-208.87759
82.28800,-24.68637,-208.75186
82.38800,-24.71644,-208.60827
82.48801,-24.74640,-208.49744
82.58801,-24.77647,-208.40827
82.68800,-24.80642,-208.22218
82.78800,-24.83644,-208.13331
82.88800,-24.86639,-207.93075
82.98801,-24.89641,-207.73500
83.08801,-24.92636,-207.53441
83.18800,-24.95638,-207.39146
83.28800,-24.98639,-207.19677
83.38800,-25.01647,-207.00559
83.48801,-25.04648,-206.84248
83.58801,-25.07637,-206.62947
83.68800,-25.10651,-206.48811
83.78800,-25.13634,-206.33876
83.88800,-25.16642,-206.24261
83.98801,-25.19643,-206.11711
84.08801,-25.22645,-205.98633
84.18800,-25.25640,-205.77151
84.28800,-25.28636,-205.50910
84.38800,-25.31649,-205.37326
84.48801,-25.34638,-205.17990
84.58801,-25.37640,-205.01269
84.68800,-25.40641,-204.90322
84.78800,-25.43643,-204.38528
84.88800,-25.46638,-204.05576
84.98801,-25.49639,-203.85006
85.08801,-25.52635,-203.60362
85.18800,-25.55648,-203.49765
85.28800,-25.58632,-203.28404
85.38800,-25.61645,-203.04976
85.48801,-25.64641,-202.89700
85.58801,-25.67648,-202.72356
85.68800,-25.70632,-202.48076
85.78800,-25.73639,-202.25514
85.88800,-25.76635,-201.99237
85.98801,-25.79636,-201.82831
86.08801,-25.82631,-201.66406
86.18800,-25.85639,-201.52086
86.28800,-25.88640,-201.31800
86.38800,-25.91642,-201.10944
86.48801,-25.94643,-201.04403
86.58801,-25.97644,-200.82241
86.68800,-26.00646,-200.62895
86.78800,-26.03641,-200.54867
86.88800,-26.06649,-200.43375
86.98801,-26.09638,-200.28455
87.08801,-26.12646,-200.15886
87.18800,-26.15647,-200.11624
87.28800,-26.18637,-199.92918
87.38800,-26.21650,-199.94197
87.48801,-26.24640,-199.79270
87.58801,-26.27641,-199.65738
87.68800,-26.30648,-199.62914
87.78800,-26.33644,-199.58971
87.88800,-26.36633,-199.58803
87.98801,-26.39647,-199.66207
88.08801,-26.42636,-199.63531
88.18800,-26.45632,-199.64235
88.28800,-26.48639,-199.66412
88.38800,-26.51634,-199.64285
88.48801,-26.54636,-199.58738
88.58801,-26.57637,-199.59744
88.68800,-26.60639,-199.54717
88.78800,-26.63634,-199.27913
88.88800,-26.66636,-194.31803
88.98801,-26.69631,-194.57120
89.08801,-26.72650,-194.64899
89.18800,-26.75640,-194.61909
89.28800,-26.78647,-194.75872
89.38800,-26.81643,-194.86962
89.48801,-26.84638,-195.04134
89.58801,-26.87652,-195.11025
89.68800,-26.90635,-195.30317
89.78800,-26.93643,-195.43208
89.88800,-26.96644,-195.58184
89.98801,-26.99633,-195.74117
90.08801,-27.02641,-195.84313
90.18800,-27.05625,-195.96638
90.28800,-27.08632,-196.07536
90.38800,-27.11627,-196.23350
90.48801,-27.14635,-196.27552
90.58801,-27.17636,-196.33347
90.68800,-27.20637,-196.28905
90.78800,-27.23651,-196.33010
90.88801,-27.26646,-196.27366
90.98801,-27.29636,-196.18092
91.08801,-27.32649,-196.08701
91.18800,-27.35639,-196.01414
91.28800,-27.38646,-195.89230
91.38801,-27.41642,-195.83117
91.48801,-27.44649,-195.72940
91.58801,-27.47650,-195.69710
91.68800,-27.50640,-195.54729
91.78800,-27.53641,-195.06829
91.88801,-27.56631,-195.00680
91.98801,-27.59644,-194.95821
92.08801,-27.62634,-194.94860
92.18800,-27.65635,-194.77380
92.28800,-27.68636,-194.71103
92.38801,-27.71626,-194.58920
92.48801,-27.74633,-194.48664
92.58801,-27.77629,-194.37281
92.68800,-27.80630,-194.27363
92.78800,-27.83644,-194.23330
92.88801,-27.86639,-194.10128
92.98801,-27.89641,-193.98754
93.08801,-27.92642,-193.88901
93.18800,-27.95643,-193.80886
93.28800,-27.98645,-193.78049
93.38801,-28.01646,-193.74184
93.48801,-28.04642,-193.65435
93.58801,-28.07649,-193.58246
93.68800,-28.10645,-193.53282
93.78800,-28.13634,-193.50141
93.88801,-28.16648,-193.57434
93.98801,-28.19643,-193.59948
94.08801,-28.22638,-193.69930
94.18800,-28.25640,-193.73359
94.28800,-28.28635,-193.79368
94.38801,-28.31643,-193.89145
94.48801,-28.34632,-193.99423
94.58801,-28.37646,-193.98468
94.68800,-28.40647,-194.10355
94.78800,-28.43642,-194.17509
94.88801,-28.46644,-194.14697
94.98801,-28.49651,-194.13989
95.08801,-28.52641,-194.18349
95.18800,-28.55642,-194.28801
95.28800,-28.58644,-194.33092
95.38801,-28.61651,-194.41945
95.48801,-28.64653,-194.45697
95.58801,-28.67642,-194.52874
95.68800,-28.70649,-194.61501
95.78800,-28.73639,-194.81840
95.88801,-28.76646,-195.08405
95.98801,-28.79636,-195.24457
96.08801,-28.82637,-195.46257
96.18800,-28.85645,-195.71707
96.28800,-28.88640,-195.92499
96.38801,-28.91636,-196.00080
96.48801,-28.94637,-196.10254
96.58801,-28.97638,-196.18094
96.68800,-29.00640,-196.19569
96.78800,-29.03641,-196.19267
96.88801,-29.06643,-196.18936
96.98801,-29.09644,-196.29333
97.08801,-29.12640,-196.26340
97.18800,-29.15647,-196.22024
97.28800,-29.18630,-196.28543
97.38801,-29.21638,-196.28566
97.48801,-29.24627,-196.34023
97.58801,-29.27641,-196.22404
97.68800,-29.30636,-196.04955
97.78800,-29.33650,-195.87917
97.88801,-29.36639,-195.78751
97.98801,-29.39646,-195.79032
98.08801,-29.42636,-195.71634
98.18800,-29.45643,-195.57657
98.28800,-29.48627,-195.52059
98.38801,-29.51628,-195.39014
98.48801,-29.54642,-195.31205
98.58801,-29.57637,-195.09815
98.68800,-29.60638,-195.12525
98.78800,-29.63628,-194.95882
98.88801,-29.66641,-194.74583
98.98801,-29.69643,-193.86198
99.08801,-29.72644,-193.64709
99.18800,-29.75640,-193.38997
99.28800,-29.78641,-193.29157
99.38801,-29.81642,-193.18869
99.48801,-29.84644,-193.11216
99.58801,-29.87640,-193.00165
99.68800,-29.90641,-192.58095
99.78800,-29.93648,-192.38558
99.88801,-29.96638,-192.38574
99.98801,-29.99639,-192.41892
100.08801,-30.02647,-192.29241
100.18800,-30.05648,-192.34631
100.28800,-30.08649,-192.26329
100.38801,-30.11639,-192.11445
100.48801,-30.14635,-191.98960
100.58801,-30.17636,-191.78355
100.68800,-30.20631,-191.75414
100.78800,-30.23633,-191.46068
100.88801,-30.26646,-191.45291
100.98801,-30.29636,-191.33251
101.08801,-30.32643,-190.78203
101.18800,-30.35638,-190.56998
101.28800,-30.38646,-190.49903
101.38801,-30.41641,-190.35704
101.48801,-30.44649,-190.07297
101.58801,-30.47638,-189.76629
101.68800,-30.50640,-189.22029
101.78800,-30.53641,-188.18470
101.88801,-30.56631,-187.90446
101.98801,-30.59632,-187.77490
102.08801,-30.62645,-187.61342
102.18800,-30.65641,-187.47261
102.28800,-30.68648,-187.31819
102.38801,-30.71644,-187.14085
102.48801,-30.74651,-187.07616
102.58801,-30.77635,-187.12025
102.68800,-30.80630,-187.10170
102.78800,-30.83632,-186.99678
102.88801,-30.86627,-187.12856
102.98801,-30.89634,-187.07117
103.08801,-30.92648,-187.05910
103.18800,-30.95637,-186.98195
103.28800,-30.98651,-186.81491
103.38801,-31.01640,-186.66597
103.48801,-31.04648,-186.77281
103.58801,-31.07643,-186.72047
103.68800,-31.10644,-186.29823
103.78800,-31.13640,-185.71621
103.88801,-31.16635,-185.17341
103.98801,-31.19631,-184.82193
104.08801,-31.22614,-184.72208
104.18800,-31.25628,-184.59851
104.28800,-31.28629,-184.46919
104.38801,-31.31642,-184.35551
104.48801,-31.34644,-183.75015
104.58801,-31.37645,-183.63161
104.68800,-31.40647,-183.64606
104.78800,-31.43648,-183.40679
104.88801,-31.46644,-183.19994
104.98801,-31.49639,-182.64765
105.08801,-31.52634,-182.55504
105.18800,-31.55642,-182.52430
105.28800,-31.58649,-182.47530
105.38801,-31.61639,-182.24141
105.48801,-31.64646,-182.12017
105.58801,-31.67654,-182.02996
105.68800,-31.70637,-181.86469
105.78800,-31.73639,-181.71161
105.88801,-31.76640,-181.66149
105.98801,-31.79648,-181.47534
106.08801,-31.82637,-180.60863
106.18800,-31.85638,-180.16463
106.28800,-31.88628,-179.79225
106.38801,-31.91641,-178.97699
106.48801,-31.94637,-177.12854
106.58801,-31.97644,-176.60394
106.68800,-32.00640,-176.20714
106.78800,-32.03641,-175.16099
106.88801,-32.06637,-174.72068
106.98801,-32.09644,-174.41556
107.08801,-32.12633,-174.02334
107.18800,-32.15641,-173.96495
107.28800,-32.18636,-173.86599
107.38801,-32.21638,-173.83028
107.48801,-32.24651,-173.80346
107.58801,-32.27641,-173.66549
107.68800,-32.30648,-173.51709
107.78800,-32.33643,-173.39682
107.88801,-32.36639,-173.37708
107.98801,-32.39634,-173.28355
108.08801,-32.42642,-173.24159
108.18800,-32.45643,-173.15120
108.28800,-32.48633,-173.00749
108.38801,-32.51646,-172.78589
108.48801,-32.54642,-172.68052
108.58801,-32.57643,-172.53172
108.68800,-32.60644,-172.33776
108.78800,-32.63646,-172.25178
108.88801,-32.66641,-172.20350
108.98801,-32.69643,-172.01699
109.08801,-32.72632,-172.03957
109.18800,-32.75645,-172.07053
109.28800,-32.78635,-172.03702
109.38801,-32.81636,-171.69327
109.48801,-32.84632,-171.15889
109.58801,-32.87651,-170.90602
109.68800,-32.90647,-170.72242
109.78800,-32.93654,-169.74537
109.88801,-32.96650,-169.34175
109.98801,-32.99645,-169.29008
110.08801,-33.02646,-168.90742
110.18800,-33.05642,-168.70731
110.28800,-33.08637,-168.49376
110.38801,-33.11645,-168.11034
110.48801,-33.14646,-166.95244
110.58801,-33.17636,-166.35118
110.68800,-33.20637,-165.58787
110.78800,-33.23639,-165.05655
110.88801,-33.26640,-164.82076
110.98801,-33.29635,-164.48721
111.08801,-33.32637,-164.24909
111.18800,-33.35638,-164.09067
111.28800,-33.38640,-163.93241
111.38801,-33.41635,-163.61583
111.48801,-33.44637,-163.43569
111.58801,-33.47638,-163.29544
111.68800,-33.50640,-163.04646
111.78800,-33.53641,-162.76164
111.88801,-33.56637,-162.64124
111.98801,-33.59638,-160.27460
112.08801,-33.62639,-159.34270
112.18800,-33.65635,-158.63780
112.23200,-33.66956,-145.82843
112.24801,-33.67440,-133.11592
112.26401,-33.67913,-120.60266
112.29401,-33.68816,-107.60920
112.37401,-33.71219,-95.08019
112.47401,-33.74220,-92.28998
112.57401,-33.77222,-87.75597
112.67400,-33.80223,-85.54262
112.77400,-33.83225,-84.37598
112.87401,-33.86226,-81.16161
112.97401,-33.89222,-79.94666
113.07401,-33.92217,-79.34269
113.17400,-33.95225,-78.68033
113.27400,-33.98214,-76.30053
113.37401,-34.01222,-76.08442
113.47401,-34.04217,-75.91818
113.57401,-34.07230,-75.87892
113.67400,-34.10220,-75.60560
113.77400,-34.13215,-74.95723
113.87401,-34.16217,-74.65146
113.97401,-34.19218,-74.57902
114.07401,-34.22214,-74.48468
114.17400,-34.25215,-74.38047
114.27400,-34.28223,-74.33013
114.37401,-34.31224,-74.32740
114.47401,-34.34225,-74.27270
114.57401,-34.37221,-74.24350
114.67400,-34.40222,-74.21546
114.77400,-34.43229,-74.20063
114.87401,-34.46225,-74.10666
114.97401,-34.49220,-73.42417
115.07401,-34.52228,-72.95818
115.17400,-34.55217,-71.99667
115.27400,-34.58219,-70.41597
115.37401,-34.61220,-68.94411
115.47401,-34.64215,-68.30139
115.57401,-34.67217,-67.99349
115.67400,-34.70219,-67.80637
115.77400,-34.73214,-67.41860
115.87401,-34.76221,-56.38894
115.97401,-34.79223,-57.64512
116.07401,-34.82224,-57.34060
116.17400,-34.85214,-57.13083
116.27400,-34.88221,-56.97749
116.37401,-34.91222,-56.80209
116.47401,-34.94206,-56.47125
116.57401,-34.97213,-55.89900
116.67400,-35.00221,-54.65135
116.77400,-35.03216,-54.54761
116.87401,-35.06224,-54.42840
116.97401,-35.09219,-54.35827
117.07401,-35.12227,-53.69624
117.17400,-35.15216,-53.31012
117.27400,-35.18224,-52.47288
117.37401,-35.21213,-52.31646
117.47401,-35.24220,-52.25432
117.57401,-35.27222,-52.18086
117.67400,-35.30217,-51.93770
117.77400,-35.33219,-51.73276
117.87401,-35.36226,-51.64296
117.97401,-35.39216,-51.42604
118.07401,-35.42229,-51.30416
118.17400,-35.45219,-51.17408
118.27400,-35.48232,-51.03486
118.37401,-35.51221,-50.96640
118.47401,-35.54217,-50.85155
118.57401,-35.57212,-50.82264
118.67400,-35.60214,-49.50716
118.77400,-35.63221,-48.53636
118.87401,-35.66211,-48.76473
118.97401,-35.69218,-48.78043
119.07401,-35.72231,-48.83840
119.17400,-35.75227,-48.92234
119.27400,-35.78234,-48.98045
119.37401,-35.81224,-48.73959
119.47401,-35.84225,-48.50060
119.57401,-35.87221,-48.31336
119.67400,-35.90222,-48.25890
119.77400,-35.93212,-48.33917
119.87401,-35.96231,-48.61581
119.97401,-35.99220,-48.93653
120.07401,-36.02222,-48.91980
120.17400,-36.05223,-49.02998
120.27400,-36.08225,-49.02752
120.37401,-36.11220,-48.95625
120.47401,-36.14215,-48.76262
120.57401,-36.17223,-48.64860
120.67201,-36.20159,-48.39604
