Time,Extension,Load
(sec),(mm),(N)
0.00000,0.00006,-0.00788
0.10000,-0.01632,-0.00243
0.20000,-0.05088,-0.00712
0.30000,-0.08544,-0.01272
0.40000,-0.11808,-0.02104
0.50000,-0.14923,-0.02734
0.60000,-0.17973,-0.03273
0.70000,-0.20986,-0.03466
0.80000,-0.24000,-0.03510
0.90000,-0.27007,-0.03964
1.00000,-0.30002,-0.03991
1.10000,-0.33004,-0.04443
1.20000,-0.36005,-0.04797
1.30000,-0.38995,-0.05265
1.40000,-0.42008,-0.05484
1.50000,-0.44998,-0.05609
1.60000,-0.47999,-0.05949
1.70000,-0.50994,-0.06312
1.80000,-0.53996,-0.06828
1.90000,-0.56985,-0.07157
2.00000,-0.59993,-0.08051
2.10000,-0.62994,-0.08788
2.20000,-0.65996,-0.09530
2.30000,-0.68997,-0.10506
2.40000,-0.71999,-0.11240
2.50000,-0.75000,-0.11677
2.60000,-0.77995,-0.12214
2.70000,-0.80997,-0.12535
2.80000,-0.83998,-0.13056
2.90000,-0.87000,-0.13205
3.00000,-0.89995,-0.13836
3.10000,-0.93003,-0.14305
3.20000,-0.95998,-0.14985
3.30000,-0.98993,-0.15088
3.40000,-1.01995,-0.15495
3.50000,-1.04990,-0.15507
3.60000,-1.07998,-0.17214
3.70000,-1.10993,-0.17819
3.80000,-1.13983,-0.18566
3.90000,-1.16984,-0.19337
4.00000,-1.19986,-0.19748
4.10000,-1.22987,-0.20682
4.20000,-1.25994,-0.21381
4.30000,-1.28996,-0.22526
4.40000,-1.31997,-0.22987
4.50000,-1.34993,-0.23420
4.60000,-1.37988,-0.23328
4.70000,-1.41002,-0.24612
4.80000,-1.43997,-0.25227
4.90000,-1.47004,-0.25803
5.00000,-1.49994,-0.26653
5.10000,-1.52995,-0.27645
5.20000,-1.55997,-0.28452
5.30000,-1.59004,-0.28927
5.40000,-1.61994,-0.29651
5.50000,-1.65007,-0.30016
5.60000,-1.67997,-0.30588
5.70000,-1.70992,-0.31268
5.80000,-1.73999,-0.31859
5.90000,-1.76989,-0.32345
6.00000,-1.79996,-0.33171
6.10000,-1.82986,-0.33799
6.20000,-1.85993,-0.34580
6.30000,-1.88989,-0.35521
6.40000,-1.91990,-0.36307
6.50000,-1.94991,-0.37062
6.60000,-1.97999,-0.37822
6.70000,-2.01006,-0.38371
6.80000,-2.04002,-0.38976
6.90000,-2.06997,-0.39637
7.00000,-2.09987,-0.40401
7.10000,-2.12988,-0.41295
7.20000,-2.15984,-0.41942
7.30000,-2.18985,-0.42487
7.40000,-2.21980,-0.43193
7.50000,-2.24994,-0.44207
7.60000,-2.27989,-0.44166
7.70000,-2.30991,-0.44794
7.80000,-2.33992,-0.45512
7.90000,-2.37000,-0.46272
8.00000,-2.39989,-0.46710
8.10000,-2.42996,-0.47457
8.20000,-2.45986,-0.48065
8.30000,-2.48999,-0.48684
8.40000,-2.51995,-0.49244
8.50000,-2.54996,-0.49927
8.60000,-2.57998,-0.50608
8.70000,-2.60993,-0.50986
8.80000,-2.64001,-0.51247
8.90000,-2.66990,-0.52162
9.00000,-2.69997,-0.53098
9.10000,-2.72999,-0.52983
9.20000,-2.75994,-0.53919
9.30000,-2.78996,-0.53833
9.40000,-2.81997,-0.54735
9.50000,-2.84993,-0.55377
9.60000,-2.88000,-0.55720
9.70000,-2.90996,-0.55866
9.80000,-2.93985,-0.56788
9.90000,-2.96992,-0.57124
10.00000,-2.99994,-0.57765
10.10000,-3.02989,-0.58579
10.20000,-3.05997,-0.57818
10.30000,-3.08992,-0.58991
10.40000,-3.12006,-0.59284
10.50000,-3.14995,-0.59802
10.60000,-3.17996,-0.60780
10.70000,-3.20992,-0.60836
10.80000,-3.23987,-0.61595
10.90000,-3.26989,-0.61369
11.00000,-3.29990,-0.62103
11.10000,-3.32992,-0.62580
11.20000,-3.35993,-0.62962
11.30000,-3.38983,-0.63729
11.40000,-3.41990,-0.63762
11.50000,-3.44985,-0.64451
11.60000,-3.47999,-0.65564
11.70000,-3.50994,-0.65542
11.80000,-3.53996,-0.66122
11.90000,-3.56991,-0.66849
12.00000,-3.59993,-0.67632
12.10000,-3.62988,-0.67488
12.20000,-3.65989,-0.67933
12.30000,-3.68991,-0.69067
12.40000,-3.71998,-0.69890
12.50000,-3.75000,-0.70529
12.60000,-3.78001,-0.70945
12.70000,-3.80985,-0.71380
12.80000,-3.83992,-0.71972
12.90000,-3.86988,-0.72717
13.00000,-3.89989,-0.72623
13.10000,-3.92996,-0.74133
13.20000,-3.95992,-0.74130
13.30000,-3.98993,-0.74552
13.40000,-4.02001,-0.75067
13.50000,-4.04990,-0.75628
13.60000,-4.07998,-0.76210
13.70000,-4.10993,-0.76811
13.80000,-4.13988,-0.76976
13.90000,-4.16996,-0.77563
14.00000,-4.19997,-0.78097
14.10000,-4.22987,-0.78322
14.20000,-4.26006,-0.78946
14.30000,-4.28996,-0.79197
14.40000,-4.31997,-0.79601
14.50000,-4.34999,-0.80155
14.60000,-4.38000,-0.80721
14.70000,-4.41007,-0.80868
14.80000,-4.43997,-0.81515
14.90000,-4.46998,-0.82392
15.00000,-4.49988,-0.82682
15.10000,-4.52989,-0.83191
15.20000,-4.55985,-0.83711
15.30000,-4.58992,-0.84162
15.40000,-4.61994,-0.84656
15.50000,-4.64995,-0.85146
15.60000,-4.68002,-0.85903
15.70000,-4.70992,-0.86357
15.80000,-4.73999,-0.86766
15.90000,-4.76995,-0.87059
16.00000,-4.79984,-0.87642
16.10000,-4.82998,-0.88788
16.20000,-4.85993,-0.89514
16.30000,-4.89000,-0.89732
16.40000,-4.91990,-0.90402
16.50000,-4.94985,-0.90189
16.60000,-4.97987,-0.91204
16.70000,-5.00994,-0.92102
16.80000,-5.03984,-0.92579
16.90000,-5.06997,-0.93286
17.00000,-5.09998,-0.94561
17.10000,-5.12994,-0.95760
17.20000,-5.15983,-0.94694
17.30000,-5.18997,-0.95934
17.40000,-5.21992,-0.96279
17.50000,-5.25006,-0.96391
17.60000,-5.28001,-0.96851
17.70000,-5.31003,-0.97177
17.80000,-5.34004,-0.97656
17.90000,-5.36993,-0.98745
18.00000,-5.39995,-0.98491
18.10000,-5.42990,-0.99236
18.20000,-5.45992,-0.99924
18.30000,-5.48987,-1.00641
18.40000,-5.51989,-1.00599
18.50000,-5.55002,-1.01294
18.60000,-5.57997,-1.01287
18.70000,-5.60999,-1.02207
18.80000,-5.64006,-1.02768
18.90000,-5.66996,-1.03170
19.00000,-5.69997,-1.04071
19.10000,-5.72993,-1.04150
19.20000,-5.75988,-1.05934
19.30000,-5.78996,-1.06226
19.40000,-5.81985,-1.06651
19.50000,-5.84992,-1.07032
19.60000,-5.87982,-1.07435
19.70000,-5.90989,-1.07840
19.80000,-5.93991,-1.08056
19.90000,-5.96998,-1.08447
20.00000,-5.99988,-1.08815
20.10000,-6.03001,-1.09149
20.20000,-6.05990,-1.09682
20.30000,-6.08998,-1.10249
20.40000,-6.11993,-1.11033
20.50000,-6.14995,-1.11508
20.60000,-6.18002,-1.12495
20.70000,-6.20998,-1.13283
20.80000,-6.23999,-1.14797
20.90000,-6.26995,-1.16034
21.00000,-6.29996,-1.17114
21.10000,-6.32997,-1.18315
21.20000,-6.36011,-1.19514
21.30000,-6.39000,-1.20684
21.40000,-6.41996,-1.22120
21.50000,-6.44991,-1.23602
21.60000,-6.47993,-1.25002
21.70000,-6.51000,-1.26341
21.80000,-6.53989,-1.27303
21.90000,-6.57003,-1.28567
22.00000,-6.59992,-1.29865
22.10000,-6.63006,-1.31295
22.20000,-6.65995,-1.32605
22.30000,-6.68985,-1.34143
22.40000,-6.71998,-1.35204
22.50000,-6.74988,-1.36604
22.60000,-6.77995,-1.37785
22.70000,-6.80990,-1.39116
22.80000,-6.84004,-1.40159
22.90000,-6.86993,-1.41447
23.00000,-6.89995,-1.42919
23.10000,-6.92996,-1.44330
23.20000,-6.95992,-1.45604
23.30000,-6.98987,-1.46998
23.40000,-7.02001,-1.48239
23.50000,-7.04990,-1.49568
23.60000,-7.07985,-1.50782
23.70000,-7.10981,-1.52024
23.80000,-7.13982,-1.53833
23.90000,-7.16984,-1.55127
24.00000,-7.19991,-1.56934
24.10000,-7.22993,-1.58587
24.20000,-7.25994,-1.60113
24.30000,-7.28989,-1.61863
24.40000,-7.31997,-1.63505
24.50000,-7.34998,-1.65270
24.60000,-7.37994,-1.67000
24.70000,-7.40995,-1.68431
24.80000,-7.43997,-1.70063
24.90000,-7.46992,-1.71507
25.00000,-7.50005,-1.73517
25.10000,-7.53001,-1.75585
25.20000,-7.56002,-1.77071
25.30000,-7.58992,-1.78572
25.40000,-7.61999,-1.79959
25.50000,-7.64989,-1.81718
25.60000,-7.67996,-1.83126
25.70000,-7.70998,-1.84720
25.80000,-7.73993,-1.86361
25.90000,-7.77000,-1.88057
26.00000,-7.79990,-1.89804
26.10000,-7.82991,-1.91440
26.20000,-7.85993,-1.93117
26.30000,-7.88994,-1.94696
26.40000,-7.91996,-1.96096
26.50000,-7.94997,-1.97912
26.60000,-7.97993,-1.99792
26.70000,-8.00988,-2.01230
26.80000,-8.03989,-2.02834
26.90000,-8.06991,-2.04471
27.00000,-8.09992,-2.05859
27.10000,-8.13000,-2.07461
27.20000,-8.16001,-2.09108
27.30000,-8.19003,-2.11121
27.40000,-8.21992,-2.12492
27.50000,-8.24999,-2.13804
27.60000,-8.27995,-2.14807
27.70000,-8.30984,-2.14440
27.80000,-8.33998,-2.13430
27.90000,-8.36987,-2.11920
28.00000,-8.39989,-2.11092
28.10000,-8.42996,-2.10232
28.20000,-8.45986,-2.09289
28.30000,-8.48999,-2.09476
28.40000,-8.51988,-2.08000
28.50000,-8.54996,-2.07399
28.60000,-8.57991,-2.06262
28.70000,-8.60993,-2.06088
28.80000,-8.64000,-2.05148
28.90000,-8.66990,-2.04578
29.00000,-8.69997,-2.03397
29.10000,-8.72998,-2.02697
29.20000,-8.75994,-2.01782
29.30000,-8.78995,-2.01273
29.40000,-8.81991,-1.99928
29.50000,-8.84998,-1.99494
29.60000,-8.87994,-1.98265
29.70000,-8.90989,-1.97521
29.80000,-8.93979,-1.96910
29.90000,-8.96986,-1.95598
30.00000,-8.99993,-1.94910
30.10000,-9.02989,-1.93890
30.20000,-9.05990,-1.93416
30.30000,-9.08992,-1.92587
30.40000,-9.11993,-1.91613
30.50000,-9.15001,-1.90756
30.60000,-9.17996,-1.90143
30.70000,-9.21004,-1.89487
30.80000,-9.23999,-1.88818
30.90000,-9.27000,-1.88139
31.00000,-9.30002,-1.87169
31.10000,-9.32991,-1.86836
31.20000,-9.35999,-1.85490
31.30000,-9.38988,-1.85106
31.40000,-9.41996,-1.83949
31.50000,-9.45003,-1.83774
31.60000,-9.47992,-1.82812
31.70000,-9.50988,-1.82457
31.80000,-9.53989,-1.82554
31.90000,-9.56991,-1.84157
32.00000,-9.59986,-1.86910
32.10000,-9.63000,-1.88993
32.20000,-9.65995,-1.91398
32.30000,-9.68996,-1.93387
32.40000,-9.71998,-1.95511
32.50000,-9.74999,-1.97623
32.60000,-9.77995,-1.99849
32.70000,-9.81002,-2.02081
32.80000,-9.84004,-2.04371
32.90000,-9.86999,-2.06768
33.00000,-9.90006,-2.08947
33.10000,-9.92996,-2.11167
33.20000,-9.95992,-2.13364
33.30000,-9.98987,-2.15607
33.40000,-10.02000,-2.17851
33.50000,-10.04984,-2.19700
33.60000,-10.07985,-2.21723
33.70000,-10.10999,-2.23511
33.80000,-10.13976,-2.24916
33.90000,-10.16996,-2.23808
34.00000,-10.19991,-2.22499
34.10000,-10.22986,-2.20858
34.20000,-10.25982,-2.19539
34.30000,-10.28989,-2.19249
34.40000,-10.31991,-2.16951
34.50000,-10.35004,-2.16420
34.60000,-10.38006,-2.15826
34.70000,-10.41007,-2.14302
34.80000,-10.44002,-2.13090
34.90000,-10.46998,-2.12273
35.00000,-10.49999,-2.11030
35.10000,-10.52995,-2.10235
35.20000,-10.55996,-2.09284
35.30000,-10.58986,-2.08476
35.40000,-10.61987,-2.07451
35.50000,-10.64989,-2.05896
35.60000,-10.67996,-2.05888
35.70000,-10.70985,-2.04818
35.80000,-10.74005,-2.03453
35.90000,-10.76988,-2.02981
36.00000,-10.79990,-2.01849
36.10000,-10.82979,-2.00791
36.20000,-10.85987,-2.00008
36.30000,-10.89000,-1.98985
36.40000,-10.92001,-1.97534
36.50000,-10.94997,-1.97534
36.60000,-10.97992,-1.96797
36.70000,-11.01000,-1.96052
36.80000,-11.03995,-1.96318
36.90000,-11.06997,-1.98331
37.00000,-11.10004,-2.02047
37.10000,-11.13000,-2.04626
37.20000,-11.16001,-2.07313
37.30000,-11.18996,-2.09578
37.40000,-11.21998,-2.12087
37.50000,-11.24993,-2.14706
37.60000,-11.28001,-2.17851
37.70000,-11.30990,-2.20823
37.80000,-11.34004,-2.23828
37.90000,-11.36993,-2.26250
38.00000,-11.39994,-2.28873
38.10000,-11.42996,-2.31558
38.20000,-11.45985,-2.34028
38.30000,-11.48999,-2.36813
38.40000,-11.51994,-2.39694
38.50000,-11.54996,-2.42599
38.60000,-11.57991,-2.45073
38.70000,-11.60993,-2.47762
38.80000,-11.63988,-2.50549
38.90000,-11.66995,-2.53301
39.00000,-11.69997,-2.56573
39.10000,-11.73004,-2.59269
39.20000,-11.75988,-2.61944
39.30000,-11.78995,-2.64797
39.40000,-11.81997,-2.67749
39.50000,-11.84998,-2.70630
39.60000,-11.87988,-2.73974
39.70000,-11.90995,-2.77121
39.80000,-11.93990,-2.80111
39.90000,-11.96986,-2.83802
40.00000,-11.99993,-2.86595
40.10000,-12.02989,-2.89692
40.20000,-12.05990,-2.93198
40.30000,-12.08992,-2.97250
40.40000,-12.11987,-3.01037
40.50000,-12.14994,-3.05332
40.60000,-12.17984,-3.08526
40.70000,-12.21003,-3.12978
40.80000,-12.23993,-3.16980
40.90000,-12.27000,-3.21573
41.00000,-12.30002,-3.25598
41.10000,-12.32997,-3.30131
41.20000,-12.35992,-3.34407
41.30000,-12.39006,-3.39202
41.40000,-12.41995,-3.43334
41.50000,-12.44997,-3.48473
41.60000,-12.47998,-3.53099
41.70000,-12.50988,-3.57879
41.80000,-12.53995,-3.63322
41.90000,-12.56990,-3.69152
42.00000,-12.59986,-3.74720
42.10000,-12.62993,-3.79968
42.20000,-12.65989,-3.85672
42.30000,-12.68990,-3.90951
42.40000,-12.71998,-3.96282
42.50000,-12.74999,-3.91409
42.60000,-12.78001,-3.91016
42.70000,-12.81002,-3.89464
42.80000,-12.83991,-3.90052
42.90000,-12.86993,-3.88586
43.00000,-12.89988,-3.87025
43.10000,-12.92996,-3.87512
43.20000,-12.96003,-3.85159
43.30000,-12.98999,-3.84091
43.40000,-13.01994,-3.84047
43.50000,-13.04996,-3.82722
43.60000,-13.07985,-3.81700
43.70000,-13.10992,-3.81178
43.80000,-13.13988,-3.80521
43.90000,-13.16995,-3.80248
44.00000,-13.19997,-3.79668
44.10000,-13.22998,-3.78632
44.20000,-13.26000,-3.77149
44.30000,-13.28989,-3.76386
44.40000,-13.31990,-3.77462
44.50000,-13.34992,-3.76498
44.60000,-13.37999,-3.76142
44.70000,-13.41001,-3.76167
44.80000,-13.43996,-3.75319
44.90000,-13.46992,-3.73552
45.00000,-13.49999,-3.72989
45.10000,-13.52995,-3.74265
45.20000,-13.56002,-3.72763
45.30000,-13.58991,-3.71834
45.40000,-13.61993,-3.70442
45.50000,-13.64988,-3.69200
45.60000,-13.67990,-3.69543
45.70000,-13.70985,-3.68513
45.80000,-13.73981,-3.67416
45.90000,-13.77000,-3.66704
46.00000,-13.79990,-3.66562
46.10000,-13.82997,-3.64523
46.20000,-13.85998,-3.62697
46.30000,-13.88994,-3.62641
46.40000,-13.92007,-3.63495
46.50000,-13.94997,-3.64291
46.60000,-13.97998,-3.66746
46.70000,-14.00999,-3.70284
46.80000,-14.03995,-3.73906
46.90000,-14.07002,-3.77831
47.00000,-14.10004,-3.81511
47.10000,-14.12999,-3.85003
47.20000,-14.16007,-3.88623
47.30000,-14.18996,-3.91819
47.40000,-14.22003,-3.95553
47.50000,-14.24993,-3.99025
47.60000,-14.27994,-4.02945
47.70000,-14.30990,-4.07052
47.80000,-14.33991,-4.10373
47.90000,-14.36993,-4.13857
48.00000,-14.40000,-4.17296
48.10000,-14.42984,-4.20598
48.20000,-14.45997,-4.24295
48.30000,-14.48999,-4.27779
48.40000,-14.51994,-4.31504
48.50000,-14.55001,-4.32111
48.60000,-14.57997,-4.23443
48.70000,-14.60992,-4.21973
48.80000,-14.63982,-4.20636
48.90000,-14.66983,-4.18576
49.00000,-14.69991,-4.15417
49.10000,-14.72986,-4.12564
49.20000,-14.75982,-4.10632
49.30000,-14.78983,-4.08333
49.40000,-14.81978,-4.06607
49.50000,-14.84992,-4.04106
49.60000,-14.87999,-4.01027
49.70000,-14.90995,-4.00519
49.80000,-14.94002,-4.05634
49.90000,-14.96992,-4.14180
50.00000,-14.99993,-4.14823
50.10000,-15.02994,-4.14476
50.20000,-15.05996,-4.14465
50.30000,-15.09003,-4.13835
50.40000,-15.11999,-4.12985
50.50000,-15.14994,-4.13976
50.60000,-15.18002,-4.15031
50.70000,-15.20997,-4.14660
50.80000,-15.23969,-4.16250
50.90000,-15.26994,-4.19088
51.00000,-15.29995,-4.24084
51.10000,-15.33003,-4.27970
51.20000,-15.35998,-4.31990
51.30000,-15.39006,-4.35784
51.40000,-15.41989,-4.39327
51.50000,-15.45003,-4.43106
51.60000,-15.47992,-4.47177
51.70000,-15.51005,-4.50896
51.80000,-15.53983,-4.54897
51.90000,-15.56984,-4.58695
52.00000,-15.59992,-4.62041
52.10000,-15.62987,-4.64497
52.20000,-15.65977,-4.56374
52.30000,-15.68984,-4.55041
52.40000,-15.71968,-4.53718
52.50000,-15.74975,-4.50857
52.60000,-15.78012,-4.47884
52.70000,-15.81020,-4.45386
52.80000,-15.84015,-4.43688
52.90000,-15.87011,-4.42493
53.00000,-15.89988,-4.40832
53.10000,-15.92990,-4.40928
53.20000,-15.95985,-4.41189
53.30000,-15.98998,-4.41162
53.40000,-16.01994,-4.43059
53.50000,-16.05007,-4.43341
53.60000,-16.08009,-4.43212
53.70000,-16.10992,-4.42555
53.80000,-16.14006,-4.41470
53.90000,-16.16995,-4.42076
54.00000,-16.19997,-4.42138
54.10000,-16.22992,-4.42773
54.20000,-16.25999,-4.48274
54.30000,-16.28995,-4.53051
54.40000,-16.31990,-4.57989
54.50000,-16.34986,-4.61805
54.60000,-16.37993,-4.65503
54.70000,-16.40989,-4.69970
54.80000,-16.43996,-4.73961
54.90000,-16.46992,-4.78486
55.00000,-16.50005,-4.82546
55.10000,-16.52994,-4.86500
55.20000,-16.55996,-4.90856
55.30000,-16.58997,-4.94791
55.40000,-16.61993,-4.98784
55.50000,-16.64994,-5.02971
55.60000,-16.67995,-5.06824
55.70000,-16.71003,-5.11489
55.80000,-16.73992,-5.16190
55.90000,-16.77006,-5.19919
56.00000,-16.79989,-5.18817
56.10000,-16.82985,-5.14138
56.20000,-16.85992,-5.11739
56.30000,-16.88994,-5.08254
56.40000,-16.92001,-5.04262
56.50000,-16.94990,-5.00477
56.60000,-16.98004,-4.96536
56.70000,-17.00993,-4.93221
56.80000,-17.03995,-4.91156
56.90000,-17.06990,-4.88042
57.00000,-17.09992,-4.84879
57.10000,-17.12993,-4.82277
57.20000,-17.16000,-4.78563
57.30000,-17.18990,-4.76581
57.40000,-17.21998,-4.74056
57.50000,-17.24999,-4.74062
57.60000,-17.27994,-4.77423
57.70000,-17.30990,-4.80847
57.80000,-17.33997,-4.81380
57.90000,-17.36999,-4.81006
58.00000,-17.39994,-4.79660
58.10000,-17.43001,-4.79431
58.20000,-17.46003,-4.79955
58.30000,-17.48998,-4.80078
58.40000,-17.51994,-4.81626
58.50000,-17.55001,-4.81679
58.60000,-17.58003,-4.84452
58.70000,-17.60992,-4.84104
58.80000,-17.63994,-4.84516
58.90000,-17.66995,-4.86072
59.00000,-17.69996,-4.88811
59.10000,-17.72998,-4.89545
59.20000,-17.75999,-4.88285
59.30000,-17.78989,-4.86245
59.40000,-17.82002,-4.87233
59.50000,-17.84992,-4.87762
59.60000,-17.87993,-4.89505
59.70000,-17.91000,-4.90157
59.80000,-17.93996,-4.89438
59.90000,-17.96991,-4.89709
60.00000,-17.99999,-4.91475
60.10000,-18.02988,-4.91037
60.20000,-18.05990,-4.92406
60.30000,-18.08991,-4.92993
60.40000,-18.11987,-4.92845
60.50000,-18.14988,-4.92798
60.60000,-18.17995,-4.94664
60.70000,-18.20991,-4.94897
60.80000,-18.23992,-4.95490
60.90000,-18.27000,-4.97260
61.00000,-18.29989,-4.97910
61.10000,-18.32997,-4.97614
61.20000,-18.35986,-4.98031
61.30000,-18.38994,-4.98378
61.40000,-18.41989,-4.99619
61.50000,-18.44990,-4.99514
61.60000,-18.47992,-5.00668
61.70000,-18.50987,-5.01464
61.80000,-18.53995,-5.02172
61.90000,-18.56984,-5.04450
62.00000,-18.59980,-5.03798
62.10000,-18.62993,-5.03894
62.20000,-18.65995,-5.05556
62.30000,-18.68996,-5.06471
62.40000,-18.71991,-5.07963
62.50000,-18.74993,-5.07742
62.60000,-18.77994,-5.09750
62.70000,-18.80990,-5.11342
62.80000,-18.83997,-5.12138
62.90000,-18.87004,-5.13579
63.00000,-18.90000,-5.15949
63.10000,-18.93001,-5.15482
63.20000,-18.95991,-5.17525
63.30000,-18.99004,-5.19824
63.40000,-19.01994,-5.20883
63.50000,-19.04995,-5.23769
63.60000,-19.07991,-5.23644
63.70000,-19.11004,-5.25506
63.80000,-19.13982,-5.28351
63.90000,-19.16989,-5.28281
64.00000,-19.19984,-5.30597
64.10001,-19.22998,-5.31403
64.20000,-19.25981,-5.31735
64.30000,-19.28995,-5.33244
64.40000,-19.31990,-5.33507
64.50000,-19.34998,-5.34253
64.60001,-19.37999,-5.36282
64.70000,-19.40982,-5.37249
64.80000,-19.43996,-5.38920
64.90000,-19.46991,-5.39533
65.00000,-19.49993,-5.40969
65.10001,-19.53000,-5.42254
65.20000,-19.55996,-5.43007
65.30000,-19.58997,-5.43785
65.40000,-19.61998,-5.44790
65.50000,-19.64994,-5.46112
65.60001,-19.67989,-5.47079
65.70001,-19.70991,-5.47534
65.80000,-19.73986,-5.49544
65.90000,-19.76982,-5.50769
66.00000,-19.79977,-5.52807
66.10001,-19.82985,-5.56799
66.20001,-19.85992,-5.59201
66.30000,-19.88987,-5.64984
66.40000,-19.91995,-5.70782
66.50000,-19.94996,-5.75904
66.60001,-19.97992,-5.80780
66.70001,-20.00993,-5.86155
66.80000,-20.04001,-5.90764
66.90000,-20.06996,-5.95764
67.00000,-20.09998,-6.01432
67.10001,-20.12987,-6.06438
67.20001,-20.15994,-6.11663
67.30000,-20.19002,-6.16397
67.40000,-20.22003,-6.20640
67.50000,-20.24999,-6.23174
67.60001,-20.28000,-6.27374
67.70001,-20.30996,-6.31906
67.80000,-20.33991,-6.36570
67.90000,-20.36986,-6.29195
68.00000,-20.39988,-6.24958
68.10001,-20.42995,-6.20412
68.20001,-20.45991,-6.16799
68.30000,-20.48992,-6.12171
68.40000,-20.52000,-6.09022
68.50000,-20.55001,-6.04839
68.60001,-20.58003,-6.00771
68.70001,-20.60992,-5.96743
68.80000,-20.63999,-5.93005
68.90000,-20.66989,-5.89000
69.00000,-20.69990,-5.86007
69.10001,-20.72992,-5.83212
69.20001,-20.76005,-5.81279
69.30000,-20.78995,-5.80562
69.40000,-20.82008,-5.78620
69.50000,-20.85004,-5.80281
69.60001,-20.87993,-5.83448
69.70001,-20.91000,-5.85468
69.80000,-20.93996,-5.87114
69.90000,-20.96991,-5.87818
70.00000,-20.99993,-5.90275
70.10001,-21.02994,-5.91692
70.20001,-21.05996,-5.92991
70.30000,-21.08997,-5.95256
70.40000,-21.11998,-5.95219
70.50000,-21.15000,-5.97199
70.60001,-21.17995,-5.97551
70.70001,-21.21003,-5.98010
70.80000,-21.23998,-5.98575
70.90000,-21.26994,-6.00057
71.00000,-21.29995,-6.01583
71.10001,-21.32990,-6.01878
71.20001,-21.35998,-6.03769
71.30000,-21.38987,-6.04961
71.40000,-21.42001,-6.05780
71.50000,-21.44990,-6.06378
71.60001,-21.47998,-6.08540
71.70001,-21.50993,-6.08355
71.80000,-21.54001,-6.11008
71.90000,-21.56996,-6.12100
72.00000,-21.59992,-6.11280
72.10001,-21.62999,-6.12280
72.20001,-21.65982,-6.13317
72.30000,-21.68996,-6.14765
72.40000,-21.71991,-6.15865
72.50000,-21.74999,-6.16977
72.60001,-21.77988,-6.17799
72.70001,-21.80989,-6.18217
72.80000,-21.83991,-6.19525
72.90000,-21.86992,-6.20317
73.00000,-21.89988,-6.21928
73.10001,-21.93001,-6.22447
73.20001,-21.95997,-6.23912
73.30000,-21.98986,-6.25545
73.40000,-22.01993,-6.27889
73.50000,-22.04995,-6.29843
73.60001,-22.08002,-6.32878
73.70001,-22.10992,-6.35599
73.80000,-22.14005,-6.38272
73.90000,-22.16995,-6.40414
74.00000,-22.20002,-6.42692
74.10001,-22.22998,-6.45623
74.20001,-22.25993,-6.48070
74.30000,-22.29006,-6.48379
74.40000,-22.31990,-6.50438
74.50000,-22.34991,-6.51620
74.60001,-22.37987,-6.52923
74.70001,-22.40988,-6.53481
74.80000,-22.44002,-6.53559
74.90000,-22.46997,-6.53867
75.00000,-22.49993,-6.54176
75.10001,-22.53006,-6.55357
75.20001,-22.55989,-6.57192
75.30000,-22.59003,-6.57487
75.40000,-22.61998,-6.58333
75.50000,-22.65000,-6.58423
75.60001,-22.67995,-6.58694
75.70001,-22.71003,-6.61286
75.80000,-22.73992,-6.60098
75.90000,-22.76994,-6.59734
76.00000,-22.79989,-6.61275
76.10001,-22.82996,-6.61444
76.20001,-22.85986,-6.61364
76.30000,-22.88993,-6.62082
76.40000,-22.91989,-6.63259
76.50000,-22.94984,-6.63438
76.60001,-22.97986,-6.65010
76.70001,-23.00993,-6.64750
76.80000,-23.03994,-6.66088
76.90000,-23.06984,-6.65490
77.00000,-23.09991,-6.66124
77.10001,-23.12993,-6.65821
77.20001,-23.15994,-6.66344
77.30000,-23.18996,-6.67598
77.40000,-23.21991,-6.71359
77.50000,-23.24999,-6.70937
77.60001,-23.27994,-6.69663
77.70001,-23.30989,-6.70004
77.80000,-23.33991,-6.69647
77.90000,-23.36998,-6.71077
78.00000,-23.39988,-6.71619
78.10001,-23.42983,-6.71562
78.20001,-23.45996,-6.74444
78.30000,-23.48992,-6.74429
78.40000,-23.51993,-6.74990
78.50000,-23.54995,-6.75560
78.60001,-23.58002,-6.76135
78.70001,-23.60992,-6.76992
78.80000,-23.63999,-6.76546
78.90000,-23.66995,-6.78604
79.00000,-23.70002,-6.80164
79.10001,-23.72997,-6.78925
79.20001,-23.75999,-6.80487
79.30000,-23.78988,-6.80786
79.40000,-23.81996,-6.82625
79.50000,-23.84991,-6.81923
79.60001,-23.87993,-6.82216
79.70001,-23.90994,-6.83032
79.80000,-23.94001,-6.86249
79.90000,-23.96985,-6.85093
80.00000,-23.99992,-6.85242
80.10001,-24.02976,-6.86791
80.20001,-24.05995,-6.86756
80.30000,-24.08985,-6.87380
80.40000,-24.11986,-6.88315
80.50001,-24.14993,-6.89539
80.60001,-24.17989,-6.91130
80.70001,-24.20997,-6.90651
80.80000,-24.23992,-6.93126
80.90000,-24.26993,-6.92832
81.00001,-24.30001,-6.93533
81.10001,-24.32996,-6.94204
81.20001,-24.35998,-6.95085
81.30000,-24.38993,-6.96346
81.40000,-24.42001,-6.98689
81.50001,-24.45002,-7.00084
81.60001,-24.47997,-7.00317
81.70001,-24.50999,-7.02422
81.80000,-24.54000,-7.04061
81.90000,-24.57008,-7.04774
82.00001,-24.60003,-7.05569
82.10001,-24.62993,-7.06638
82.16400,-24.64912,-6.94011
82.17600,-24.65271,-6.81170
82.27600,-24.68272,-6.90609
82.37601,-24.71267,-6.97214
82.47601,-24.74269,-7.00580
82.57601,-24.77276,-6.94611
82.67600,-24.80278,-6.89474
82.77600,-24.83279,-6.84712
82.87601,-24.86275,-6.81177
82.97601,-24.89270,-6.77275
83.07601,-24.92289,-6.73044
83.17600,-24.95273,-6.70251
83.27600,-24.98280,-6.65712
83.37601,-25.01270,-6.60143
83.47601,-25.04271,-6.58036
83.57601,-25.07267,-6.57117
83.67600,-25.10274,-6.55840
83.77600,-25.13270,-6.53648
83.87601,-25.16283,-6.53493
83.97601,-25.19273,-6.54682
84.07601,-25.22274,-6.53496
84.17600,-25.25275,-6.52924
84.27600,-25.28271,-6.53876
84.37601,-25.31278,-6.54541
84.47601,-25.34274,-6.53679
84.57601,-25.37275,-6.53264
84.67600,-25.40271,-6.53445
84.77600,-25.43278,-6.52431
84.87601,-25.46279,-6.53068
84.97601,-25.49287,-6.53091
85.07601,-25.52282,-6.53343
85.17600,-25.55272,-6.54754
85.27600,-25.58273,-6.55948
85.37601,-25.61269,-6.55595
85.47601,-25.64276,-6.55561
85.57601,-25.67265,-6.55902
85.67600,-25.70279,-6.54631
85.77600,-25.73268,-6.55245
85.87601,-25.76276,-6.56468
85.97601,-25.79265,-6.57674
86.07601,-25.82267,-6.55516
86.17600,-25.85280,-6.56432
86.27600,-25.88282,-6.56817
86.37601,-25.91277,-6.58175
86.47601,-25.94266,-6.56472
86.57601,-25.97274,-6.56696
86.67600,-26.00258,-6.56690
86.77600,-26.03265,-6.57027
86.87601,-26.06266,-6.59118
86.97601,-26.09262,-6.59997
87.07601,-26.12263,-6.58362
87.17600,-26.15276,-6.61285
87.27600,-26.18278,-6.63998
87.37601,-26.21285,-6.63631
87.47601,-26.24281,-6.62164
87.57601,-26.27282,-6.62663
87.67600,-26.30278,-6.61905
87.77600,-26.33285,-6.58358
87.87601,-26.36280,-6.62005
87.97601,-26.39282,-6.64674
88.07601,-26.42277,-6.63029
88.17600,-26.45285,-6.63019
88.27600,-26.48274,-6.64192
88.37601,-26.51276,-6.65133
88.47601,-26.54277,-6.62889
88.57601,-26.57267,-6.62757
88.67600,-26.60268,-6.63490
88.77600,-26.63269,-6.60239
88.87601,-26.66265,-6.60177
88.97601,-26.69272,-6.60389
89.07601,-26.72262,-6.60993
89.17600,-26.75257,-6.62075
89.27600,-26.78277,-6.63045
89.37601,-26.81296,-6.61702
89.47601,-26.84291,-6.61528
89.57601,-26.87275,-6.61343
89.67600,-26.90282,-6.61314
89.77600,-26.93284,-6.61104
89.87601,-26.96273,-6.62583
89.97601,-26.99269,-6.62446
90.07601,-27.02276,-6.61120
90.17600,-27.05272,-6.61494
90.27600,-27.08273,-6.62506
90.37601,-27.11280,-6.62851
90.47601,-27.14282,-6.61692
90.57601,-27.17283,-6.61935
90.67600,-27.20279,-6.63223
90.77600,-27.23280,-6.62797
90.87601,-27.26282,-6.61939
90.97601,-27.29277,-6.63510
91.07601,-27.32279,-6.60743
91.17600,-27.35274,-6.62101
91.27600,-27.38287,-6.62056
91.37601,-27.41277,-6.62714
91.47601,-27.44284,-6.62158
91.57601,-27.47280,-6.60536
91.67600,-27.50275,-6.60592
91.77600,-27.53277,-6.61322
91.87601,-27.56278,-6.60673
91.97601,-27.59268,-6.60230
92.07601,-27.62281,-6.60193
92.17600,-27.65276,-6.61727
92.27600,-27.68278,-6.60059
92.37601,-27.71267,-6.60639
92.47601,-27.74275,-6.60777
92.57601,-27.77276,-6.61102
92.67600,-27.80265,-6.62063
92.77600,-27.83273,-6.62264
92.87601,-27.86280,-6.62515
92.97601,-27.89270,-6.61147
93.07601,-27.92271,-6.61043
93.17600,-27.95267,-6.62747
93.27600,-27.98280,-6.62038
93.37601,-28.01270,-6.60342
93.47601,-28.04271,-6.61146
93.57601,-28.07267,-6.61952
93.67600,-28.10280,-6.61897
93.77600,-28.13275,-6.61448
93.87601,-28.16271,-6.62847
93.97601,-28.19272,-6.64030
94.07601,-28.22280,-6.62337
94.17600,-28.25269,-6.62447
94.27600,-28.28276,-6.62567
94.37601,-28.31278,-6.64174
94.47601,-28.34279,-6.63848
94.57601,-28.37275,-6.62069
94.67600,-28.40270,-6.63956
94.77600,-28.43278,-6.62826
94.87601,-28.46267,-6.60831
94.97601,-28.49269,-6.62870
95.07601,-28.52276,-6.63728
95.17600,-28.55271,-6.61564
95.27600,-28.58285,-6.62718
95.37601,-28.61268,-6.63759
95.47601,-28.64270,-6.63652
95.57601,-28.67271,-6.61912
95.67600,-28.70273,-6.63090
95.77600,-28.73274,-6.68987
95.87601,-28.76288,-6.67558
95.97601,-28.79277,-6.65204
96.07601,-28.82279,-6.66552
96.17600,-28.85274,-6.63838
96.27600,-28.88269,-6.62721
96.37601,-28.91265,-6.63624
96.47601,-28.94272,-6.66399
96.57601,-28.97274,-6.64294
96.67600,-29.00269,-6.65433
96.77600,-29.03276,-6.64349
96.87601,-29.06272,-6.66131
96.97601,-29.09279,-6.66254
97.07601,-29.12269,-6.63731
97.17600,-29.15276,-6.66222
97.27600,-29.18266,-6.68277
97.37601,-29.21255,-6.66602
97.47601,-29.24257,-6.65666
97.57601,-29.27258,-6.63371
97.67600,-29.30271,-6.67835
97.77600,-29.33267,-6.69327
97.87601,-29.36286,-6.67738
97.97601,-29.39294,-6.67215
98.07601,-29.42289,-6.64451
98.17600,-29.45279,-6.63984
98.27600,-29.48274,-6.69086
98.37601,-29.51276,-6.69824
98.47601,-29.54277,-6.65118
98.57601,-29.57260,-6.65408
98.67600,-29.60274,-6.66998
98.77600,-29.63281,-6.69283
98.87601,-29.66271,-6.68219
98.97601,-29.69278,-6.68142
99.07601,-29.72268,-6.68066
99.17600,-29.75281,-6.66209
99.27600,-29.78265,-6.65767
99.37601,-29.81272,-6.69481
99.47601,-29.84261,-6.68815
99.57601,-29.87281,-6.65866
99.67600,-29.90270,-6.65390
99.77600,-29.93272,-6.67618
99.87601,-29.96279,-6.68401
99.97601,-29.99275,-6.65385
100.07601,-30.02270,-6.65948
100.17600,-30.05271,-6.66396
100.27600,-30.08273,-6.66007
100.37601,-30.11274,-6.66628
100.47601,-30.14270,-6.67039
100.57601,-30.17265,-6.67319
100.67600,-30.20278,-6.65628
100.77600,-30.23274,-6.66608
100.87601,-30.26281,-6.68462
100.97601,-30.29283,-6.66807
101.07601,-30.32272,-6.68387
101.17600,-30.35274,-6.71381
101.27601,-30.38269,-6.66102
101.37601,-30.41277,-6.66221
101.47601,-30.44266,-6.65522
101.57601,-30.47280,-6.65814
101.67600,-30.50269,-6.69035
101.77601,-30.53271,-6.67207
101.87601,-30.56272,-6.65977
101.97601,-30.59267,-6.65156
102.07601,-30.62281,-6.67331
102.17600,-30.65270,-6.66539
102.27601,-30.68278,-6.65649
102.37601,-30.71273,-6.66059
102.47601,-30.74275,-6.66573
102.57601,-30.77270,-6.64911
102.67600,-30.80277,-6.68585
102.77601,-30.83273,-6.66473
102.87601,-30.86274,-6.63838
102.97601,-30.89270,-6.66181
103.07601,-30.92283,-6.65891
103.17600,-30.95279,-6.66737
103.27601,-30.98280,-6.64765
103.37601,-31.01276,-6.67107
103.47601,-31.04277,-6.65715
103.57601,-31.07272,-6.67077
103.67600,-31.10280,-6.66304
103.77601,-31.13275,-6.66348
103.87601,-31.16277,-6.69235
103.97601,-31.19272,-6.67710
104.07601,-31.22279,-6.65955
104.17600,-31.25275,-6.66551
104.27601,-31.28276,-6.68262
104.37601,-31.31272,-6.67349
104.47601,-31.34273,-6.64861
104.57601,-31.37269,-6.65256
104.67600,-31.40276,-6.68141
104.77601,-31.43272,-6.65407
104.87601,-31.46267,-6.65508
104.97601,-31.49268,-6.69057
105.07601,-31.52270,-6.66968
105.17600,-31.55265,-6.66319
105.27601,-31.58279,-6.67050
105.37601,-31.61280,-6.69716
105.47601,-31.64270,-6.67575
105.57601,-31.67277,-6.68869
105.67600,-31.70267,-6.68991
105.77601,-31.73268,-6.68038
105.87601,-31.76281,-6.66712
105.97601,-31.79271,-6.69553
106.07601,-31.82278,-6.69798
106.17600,-31.85280,-6.71082
106.27601,-31.88287,-6.70466
106.37601,-31.91276,-6.70173
106.47601,-31.94278,-6.68840
106.57601,-31.97273,-6.70223
106.67600,-32.00275,-6.68546
106.77601,-32.03277,-6.70316
106.87601,-32.06278,-6.70060
106.97601,-32.09279,-6.68263
107.07601,-32.12281,-6.67270
107.17600,-32.15282,-6.71079
107.27601,-32.18277,-6.70286
107.37601,-32.21273,-6.73255
107.47601,-32.24280,-6.75275
107.57601,-32.27270,-6.74746
107.67600,-32.30271,-6.72576
107.77601,-32.33273,-6.79954
107.87601,-32.36268,-6.87177
107.97601,-32.39275,-6.93993
108.07601,-32.42271,-6.98520
108.17600,-32.45284,-7.05145
108.27601,-32.48280,-7.10282
108.37601,-32.51281,-7.17307
108.47601,-32.54277,-7.21705
108.57601,-32.57272,-7.27382
108.67600,-32.60280,-7.30074
108.77601,-32.63275,-7.40070
108.87601,-32.66271,-7.42943
108.97601,-32.69284,-7.48260
109.07601,-32.72279,-7.54451
109.17600,-32.75281,-7.56783
109.27601,-32.78270,-7.61581
109.37601,-32.81278,-7.67075
109.47601,-32.84279,-7.70544
109.57601,-32.87269,-7.73091
109.67600,-32.90276,-7.76405
109.77601,-32.93266,-7.78211
109.87601,-32.96279,-7.78698
109.97601,-32.99274,-7.69181
110.07601,-33.02264,-7.67440
110.17600,-33.05283,-7.58222
110.27601,-33.08273,-7.56426
110.37601,-33.11280,-7.52003
110.47601,-33.14276,-7.48570
110.57601,-33.17271,-7.45817
110.67600,-33.20279,-7.40429
110.77601,-33.23262,-7.37684
110.87601,-33.26269,-7.34105
110.97601,-33.29277,-7.30509
111.07601,-33.32272,-7.25027
111.17600,-33.35274,-7.23713
111.27601,-33.38269,-7.28586
111.37601,-33.41276,-7.26553
111.47601,-33.44272,-7.22498
111.57601,-33.47280,-7.22077
111.67600,-33.50269,-7.17257
111.77601,-33.53282,-7.11504
111.87601,-33.56278,-7.08202
111.97601,-33.59279,-7.06106
112.07601,-33.62274,-7.00163
112.17600,-33.65276,-6.96702
112.27601,-33.68283,-6.95255
112.37601,-33.71273,-6.99060
112.47601,-33.74274,-7.03797
112.57601,-33.77276,-7.09901
112.67600,-33.80277,-7.17254
112.77601,-33.83260,-7.23708
112.87601,-33.86268,-7.28022
112.97601,-33.89264,-7.35842
113.07601,-33.92277,-7.41656
113.17600,-33.95272,-7.45830
113.27601,-33.98274,-7.44141
113.37601,-34.01281,-7.39069
113.47601,-34.04271,-7.35440
113.57601,-34.07278,-7.30244
113.67600,-34.10268,-7.27147
113.77601,-34.13281,-7.23985
113.87601,-34.16264,-7.20635
113.97601,-34.19266,-7.15942
114.07601,-34.22273,-7.10313
114.17600,-34.25281,-7.08462
114.27601,-34.28276,-7.13400
114.37601,-34.31278,-7.17586
114.47601,-34.34285,-7.25998
114.57601,-34.37275,-7.32372
114.67600,-34.40276,-7.38276
114.77601,-34.43272,-7.43207
114.87601,-34.46279,-7.52351
114.97601,-34.49262,-7.55920
115.07601,-34.52270,-7.59723
115.17600,-34.55253,-7.68281
115.27601,-34.58267,-7.70760
115.37601,-34.61262,-7.62184
115.47601,-34.64269,-7.57985
115.57601,-34.67277,-7.54374
115.67600,-34.70290,-7.49284
115.77601,-34.73286,-7.47658
115.87601,-34.76281,-7.43981
115.97601,-34.79277,-7.39414
116.05200,-34.81555,-7.26661
116.06801,-34.82039,-7.12473
116.09200,-34.82750,-6.99953
116.19201,-34.85758,-7.02857
116.29201,-34.88765,-7.11846
116.39201,-34.91761,-7.17416
116.49201,-34.94762,-7.24451
116.59200,-34.97758,-7.31698
116.69201,-35.00753,-7.39392
116.79201,-35.03754,-7.45606
116.89201,-35.06750,-7.52767
116.99201,-35.09751,-7.58655
117.09200,-35.12747,-7.61664
117.19201,-35.15754,-7.57856
117.29201,-35.18750,-7.52035
117.39201,-35.21751,-7.47464
117.49201,-35.24747,-7.43488
117.59200,-35.27748,-7.39204
117.69201,-35.30750,-7.34068
117.79201,-35.33751,-7.32466
117.89201,-35.36746,-7.28741
117.99201,-35.39748,-7.23458
118.09200,-35.42755,-7.17970
118.19201,-35.45763,-7.14536
118.29201,-35.48758,-7.08531
118.39201,-35.51753,-7.03842
118.49201,-35.54761,-7.00843
118.59200,-35.57757,-7.03296
118.69201,-35.60758,-6.97923
118.79201,-35.63759,-7.05179
118.89201,-35.66755,-7.14208
118.99201,-35.69756,-7.22417
119.09200,-35.72757,-7.30420
119.19201,-35.75765,-7.36599
119.29201,-35.78754,-7.42662
119.39201,-35.81756,-7.45358
119.49201,-35.84757,-7.40481
119.59200,-35.87753,-7.34621
119.69201,-35.90748,-7.31029
119.79201,-35.93761,-7.26883
119.89201,-35.96763,-7.20676
119.99201,-35.99764,-7.15297
120.09200,-36.02760,-7.11288
120.19201,-36.05755,-7.04225
120.29201,-36.08757,-6.97963
120.39201,-36.11758,-7.08402
120.49201,-36.14754,-7.16318
120.59200,-36.17755,-7.22211
120.69201,-36.20763,-7.29295
120.79201,-36.23752,-7.38199
120.89201,-36.26759,-7.41277
120.99201,-36.29749,-7.45432
121.09200,-36.32750,-7.54686
121.19201,-36.35746,-7.51262
121.29201,-36.38747,-7.42281
121.39201,-36.41743,-7.39569
121.49201,-36.44738,-7.37034
121.59200,-36.47752,-7.30098
121.69201,-36.50741,-7.25808
121.79201,-36.53748,-7.22304
121.89201,-36.56750,-7.14569
121.99201,-36.59745,-7.08292
122.09200,-36.62753,-7.05948
122.19201,-36.65754,-7.02152
122.29201,-36.68756,-6.96392
122.39201,-36.71757,-6.92657
122.49201,-36.74759,-6.91537
122.59200,-36.77748,-6.99497
122.69201,-36.80755,-7.06643
122.79201,-36.83763,-7.14917
122.89201,-36.86764,-7.22273
122.99201,-36.89754,-7.28026
123.09200,-36.92773,-7.32001
123.19201,-36.95756,-7.41554
123.29201,-36.98752,-7.48182
123.39201,-37.01747,-7.43830
123.49201,-37.04767,-7.49500
123.59200,-37.07750,-7.39928
123.69201,-37.10757,-7.34086
123.79201,-37.13741,-7.33426
123.89201,-37.16754,-7.26775
123.99201,-37.19744,-7.21465
124.09200,-37.22752,-7.19372
124.19201,-37.25759,-7.17559
124.29201,-37.28754,-7.24514
124.39201,-37.31768,-7.29867
124.49201,-37.34751,-7.37754
124.59200,-37.37753,-7.41001
124.69201,-37.40760,-7.38176
124.79201,-37.43749,-7.32716
124.89201,-37.46745,-7.28287
124.99201,-37.49746,-7.22832
125.09200,-37.52754,-7.19033
125.19201,-37.55755,-7.14723
125.29201,-37.58751,-7.08576
125.39201,-37.61752,-7.03994
125.49201,-37.64760,-6.98316
125.59200,-37.67749,-6.92610
125.69201,-37.70750,-6.88943
125.79201,-37.73758,-6.85413
125.89201,-37.76753,-6.88776
125.99201,-37.79761,-6.94305
126.09200,-37.82756,-7.01990
126.19201,-37.85769,-7.06566
126.29201,-37.88753,-7.13193
126.39201,-37.91761,-7.13646
126.49201,-37.94756,-7.19402
126.59200,-37.97751,-7.11213
126.69201,-38.00747,-7.07598
126.79201,-38.03760,-7.03306
126.89201,-38.06750,-6.98480
126.99201,-38.09757,-6.93403
127.09200,-38.12747,-6.87385
127.19201,-38.15754,-6.84361
127.29201,-38.18749,-6.77850
127.39201,-38.21751,-6.74019
127.49201,-38.24758,-6.67392
127.59200,-38.27753,-6.62258
127.69201,-38.30749,-6.55908
127.79201,-38.33757,-6.67206
127.89201,-38.36752,-6.76496
127.99201,-38.39765,-6.84567
128.09201,-38.42755,-6.92208
128.19200,-38.45762,-7.00091
128.29201,-38.48752,-7.08069
128.39202,-38.51759,-7.11899
128.49201,-38.54755,-7.17315
128.59201,-38.57756,-7.11753
128.69200,-38.60757,-7.03795
128.79201,-38.63753,-6.97997
128.89202,-38.66748,-6.94411
128.99201,-38.69756,-6.89129
129.09201,-38.72751,-6.81983
129.19200,-38.75759,-6.77882
129.29201,-38.78754,-6.72544
129.39202,-38.81756,-6.69440
129.49201,-38.84751,-6.64768
129.59201,-38.87758,-6.65442
129.69200,-38.90748,-6.69461
129.79201,-38.93761,-6.71290
129.89202,-38.96751,-6.78487
129.99201,-38.99752,-6.86547
130.09201,-39.02748,-6.95611
130.19200,-39.05755,-7.02725
130.29001,-39.08691,-6.84360
130.29201,-39.08751,-6.64026
130.29401,-39.08816,-6.36446
130.29601,-39.08876,-6.03931
130.29801,-39.08936,-5.67631
130.30000,-39.08996,-5.28111
130.30200,-39.09056,-4.86530
130.30400,-39.09116,-4.44102
