Time,Extension,Load
(sec),(mm),(N)
0.00000,0.00006,-0.00180
0.10000,-0.01644,-0.00358
0.20000,-0.05094,0.00469
0.30000,-0.08544,-0.00472
0.40000,-0.11808,-0.00579
0.50000,-0.14917,-0.00379
0.60000,-0.17967,-0.00337
0.70000,-0.20986,-0.00330
0.80000,-0.24000,-0.00403
0.90000,-0.27007,-0.00508
1.00000,-0.29996,-0.00275
1.10000,-0.33004,-0.00583
1.20000,-0.36005,-0.00971
1.30000,-0.39001,-0.00911
1.40000,-0.42008,-0.01212
1.50000,-0.44998,-0.01378
1.60000,-0.48005,-0.01809
1.70000,-0.50988,-0.02275
1.80000,-0.53996,-0.02306
1.90000,-0.56985,-0.02405
2.00000,-0.59993,-0.02768
2.10000,-0.62994,-0.02972
2.20000,-0.65996,-0.02977
2.30000,-0.69003,-0.02394
2.40000,-0.72004,-0.03099
2.50000,-0.75000,-0.02903
2.60000,-0.77995,-0.02616
2.70000,-0.80997,-0.03414
2.80000,-0.83992,-0.03616
2.90000,-0.87000,-0.03832
3.00000,-0.89995,-0.03838
3.10000,-0.93003,-0.04144
3.20000,-0.95998,-0.04319
3.30000,-0.98993,-0.04735
3.40000,-1.02001,-0.05296
3.50000,-1.04990,-0.05854
3.60000,-1.07998,-0.05955
3.70000,-1.10987,-0.06240
3.80000,-1.13989,-0.06671
3.90000,-1.16984,-0.07293
4.00000,-1.19992,-0.07587
4.10000,-1.22981,-0.07873
4.20000,-1.25994,-0.08107
4.30000,-1.28996,-0.08511
4.40000,-1.31997,-0.08640
4.50000,-1.34993,-0.09125
4.60000,-1.37988,-0.09812
4.70000,-1.41002,-0.09888
4.80000,-1.43997,-0.10198
4.90000,-1.46998,-0.10533
5.00000,-1.49994,-0.10914
5.10000,-1.52995,-0.10571
5.20000,-1.55997,-0.10789
5.30000,-1.59004,-0.11129
5.40000,-1.61994,-0.11279
5.50000,-1.65007,-0.12087
5.60000,-1.67997,-0.12065
5.70000,-1.70992,-0.12290
5.80000,-1.73999,-0.13615
5.90000,-1.76989,-0.13511
6.00000,-1.79996,-0.13894
6.10000,-1.82992,-0.15269
6.20000,-1.85993,-0.15059
6.30000,-1.88989,-0.15083
6.40000,-1.91990,-0.16667
6.50000,-1.94991,-0.16401
6.60000,-1.97999,-0.16307
6.70000,-2.01006,-0.16752
6.80000,-2.04002,-0.17339
6.90000,-2.06997,-0.16967
7.00000,-2.09987,-0.17741
7.10000,-2.12994,-0.18108
7.20000,-2.15984,-0.18137
7.30000,-2.18985,-0.18569
7.40000,-2.21980,-0.18867
7.50000,-2.24994,-0.18717
7.60000,-2.27989,-0.18900
7.70000,-2.30991,-0.19359
7.80000,-2.33986,-0.20443
7.90000,-2.36994,-0.20075
8.00000,-2.39989,-0.19453
8.10000,-2.42996,-0.20868
8.20000,-2.45986,-0.21485
8.30000,-2.48999,-0.20402
8.40000,-2.51995,-0.20950
8.50000,-2.55002,-0.20980
8.60000,-2.57998,-0.21441
8.70000,-2.60993,-0.21103
8.80000,-2.63995,-0.21004
8.90000,-2.66990,-0.21562
9.00000,-2.69997,-0.22011
9.10000,-2.72999,-0.21702
9.20000,-2.75994,-0.21474
9.30000,-2.78996,-0.22175
9.40000,-2.81991,-0.22648
9.50000,-2.84993,-0.22612
9.60000,-2.88000,-0.22677
9.70000,-2.90996,-0.22726
9.80000,-2.93985,-0.22765
9.90000,-2.96992,-0.23750
10.00000,-2.99994,-0.23326
10.10000,-3.02995,-0.23413
10.20000,-3.05997,-0.23864
10.30000,-3.08992,-0.23981
10.40000,-3.12006,-0.24005
10.50000,-3.14995,-0.24437
10.60000,-3.17996,-0.24071
10.70000,-3.20992,-0.24301
10.80000,-3.23987,-0.24743
10.90000,-3.26995,-0.24472
11.00000,-3.29990,-0.25035
11.10000,-3.32998,-0.24935
11.20000,-3.35999,-0.25645
11.30000,-3.38983,-0.24983
11.40000,-3.41984,-0.26089
11.50000,-3.44985,-0.25581
11.60000,-3.47999,-0.26460
11.70000,-3.50994,-0.26101
11.80000,-3.53996,-0.26857
11.90000,-3.56997,-0.26815
12.00000,-3.59993,-0.27452
12.10000,-3.62988,-0.27523
12.20000,-3.65989,-0.28001
12.30000,-3.68991,-0.28082
12.40000,-3.71998,-0.28618
12.50000,-3.75000,-0.28627
12.60000,-3.78007,-0.29168
12.70000,-3.80991,-0.29220
12.80000,-3.83992,-0.29667
12.90000,-3.86988,-0.30083
13.00000,-3.89989,-0.29990
13.10000,-3.92996,-0.30532
13.20000,-3.95992,-0.30539
13.30000,-3.98993,-0.31030
13.40000,-4.01995,-0.31127
13.50000,-4.04984,-0.31408
13.60000,-4.07998,-0.31687
13.70000,-4.10993,-0.31701
13.80000,-4.13988,-0.32030
13.90000,-4.16996,-0.32236
14.00000,-4.19997,-0.32266
14.10000,-4.22987,-0.32729
14.20000,-4.26006,-0.32735
14.30000,-4.28990,-0.32697
14.40000,-4.31997,-0.32909
14.50000,-4.34999,-0.33042
14.60000,-4.37994,-0.33304
14.70000,-4.41001,-0.33027
14.80000,-4.43997,-0.33255
14.90000,-4.46998,-0.33522
15.00000,-4.49994,-0.33392
15.10000,-4.52995,-0.33641
15.20000,-4.55985,-0.34107
15.30000,-4.58986,-0.33859
15.40000,-4.61994,-0.33873
15.50000,-4.65001,-0.34522
15.60000,-4.68008,-0.34384
15.70000,-4.70998,-0.34098
15.80000,-4.73999,-0.34890
15.90000,-4.76995,-0.35032
16.00000,-4.79984,-0.34822
16.10000,-4.82992,-0.35229
16.20000,-4.85999,-0.36194
16.30000,-4.88994,-0.36110
16.40000,-4.91990,-0.36703
16.50000,-4.94991,-0.36619
16.60000,-4.97999,-0.36838
16.70000,-5.00994,-0.36827
16.80000,-5.03996,-0.37505
16.90000,-5.06997,-0.37268
17.00000,-5.09998,-0.37078
17.10000,-5.13000,-0.37997
17.20000,-5.15983,-0.38937
17.30000,-5.18991,-0.38596
17.40000,-5.21986,-0.38526
17.50000,-5.24994,-0.38598
17.60000,-5.27995,-0.38553
17.70000,-5.30991,-0.38990
17.80000,-5.33998,-0.38607
17.90000,-5.36993,-0.39722
18.00000,-5.39995,-0.40405
18.10000,-5.42990,-0.40861
18.20000,-5.45998,-0.40219
18.30000,-5.48987,-0.41568
18.40000,-5.51989,-0.41900
18.50000,-5.55002,-0.42707
18.60000,-5.57997,-0.43839
18.70000,-5.60999,-0.42822
18.80000,-5.64006,-0.43337
18.90000,-5.67002,-0.44409
19.00000,-5.70003,-0.44972
19.10000,-5.72999,-0.44952
19.20000,-5.75988,-0.45013
19.30000,-5.78996,-0.46295
19.40000,-5.81985,-0.47150
19.50000,-5.84992,-0.47282
19.60000,-5.87982,-0.49028
19.70000,-5.90995,-0.49724
19.80000,-5.93991,-0.50441
19.90000,-5.96998,-0.51472
20.00000,-5.99988,-0.52817
20.10000,-6.03001,-0.53525
20.20000,-6.05990,-0.54427
20.30000,-6.08992,-0.55892
20.40000,-6.11987,-0.56512
20.50000,-6.14995,-0.56876
20.60000,-6.18002,-0.58258
20.70000,-6.20998,-0.58834
20.80000,-6.23999,-0.59514
20.90000,-6.26995,-0.60739
21.00000,-6.29996,-0.62077
21.10000,-6.32997,-0.62373
21.20000,-6.36005,-0.63810
21.30000,-6.39000,-0.64176
21.40000,-6.41990,-0.64864
21.50000,-6.44991,-0.66194
21.60000,-6.47993,-0.67241
21.70000,-6.51000,-0.67359
21.80000,-6.53989,-0.68654
21.90000,-6.57003,-0.69349
22.00000,-6.59998,-0.70709
22.10000,-6.63006,-0.71975
22.20000,-6.65989,-0.72517
22.30000,-6.68985,-0.73007
22.40000,-6.71992,-0.74591
22.50000,-6.74988,-0.75277
22.60000,-6.77995,-0.75939
22.70000,-6.80990,-0.76355
22.80000,-6.84004,-0.78225
22.90000,-6.86993,-0.78187
23.00000,-6.90001,-0.79879
23.10000,-6.92996,-0.80710
23.20000,-6.95992,-0.82163
23.30000,-6.98987,-0.82748
23.40000,-7.02001,-0.84198
23.50000,-7.04990,-0.84759
23.60000,-7.07985,-0.86221
23.70000,-7.10987,-0.86404
23.80000,-7.13988,-0.88573
23.90000,-7.16984,-0.88925
24.00000,-7.19991,-0.89728
24.10000,-7.22993,-0.91199
24.20000,-7.26000,-0.92128
24.30000,-7.28995,-0.92587
24.40000,-7.31997,-0.93712
24.50000,-7.34998,-0.93714
24.60000,-7.37994,-0.92886
24.70000,-7.40989,-0.92918
24.80000,-7.43991,-0.91787
24.90000,-7.46998,-0.91449
25.00000,-7.50005,-0.90646
25.10000,-7.53001,-0.90534
25.20000,-7.56002,-0.91109
25.30000,-7.58998,-0.92710
25.40000,-7.61999,-0.93639
25.50000,-7.64983,-0.95804
25.60000,-7.67996,-0.96670
25.70000,-7.70998,-0.98256
25.80000,-7.73993,-0.99565
25.90000,-7.76994,-1.00790
26.00000,-7.79990,-1.01922
26.10000,-7.82991,-1.03306
26.20000,-7.85987,-1.04532
26.30000,-7.88994,-1.05741
26.40000,-7.91996,-1.07459
26.50000,-7.94997,-1.08695
26.60000,-7.97999,-1.09972
26.70000,-8.00988,-1.10929
26.80000,-8.03989,-1.11249
26.90000,-8.06991,-1.09564
27.00000,-8.09998,-1.08337
27.10000,-8.13000,-1.07158
27.20000,-8.16001,-1.06100
27.30000,-8.19003,-1.04892
27.40000,-8.21992,-1.03767
27.50000,-8.24999,-1.03028
27.60000,-8.27995,-1.01900
27.70000,-8.30990,-1.00827
27.80000,-8.34004,-0.99500
27.90000,-8.36987,-0.98503
28.00000,-8.39989,-0.97771
28.10000,-8.42990,-0.97024
28.20000,-8.45986,-0.96764
28.30000,-8.48999,-0.97978
28.40000,-8.51988,-0.99143
28.50000,-8.54996,-1.00526
28.60000,-8.57991,-1.01827
28.70000,-8.60999,-1.03569
28.80000,-8.64000,-1.05080
28.90000,-8.66990,-1.06645
29.00000,-8.69997,-1.08427
29.10000,-8.72998,-1.10197
29.20000,-8.75988,-1.11701
29.30000,-8.78995,-1.13480
29.40000,-8.81991,-1.14956
29.50000,-8.84998,-1.16224
29.60000,-8.87988,-1.17197
29.70000,-8.90989,-1.17760
29.80000,-8.93985,-1.16263
29.90000,-8.96986,-1.14578
30.00000,-8.99993,-1.13456
30.10000,-9.02989,-1.11846
30.20000,-9.05990,-1.10559
30.30000,-9.08992,-1.09137
30.40000,-9.11993,-1.08001
30.50000,-9.14995,-1.07077
30.60000,-9.17996,-1.05712
30.70000,-9.21004,-1.04528
30.80000,-9.23999,-1.03177
30.90000,-9.27000,-1.02244
31.00000,-9.30002,-1.00818
31.10000,-9.32997,-1.00059
31.20000,-9.35999,-0.99568
31.30000,-9.38994,-1.00315
31.40000,-9.41990,-1.02030
31.50000,-9.45003,-1.04008
31.60000,-9.47986,-1.05977
31.70000,-9.50988,-1.07864
31.80000,-9.53989,-1.09931
31.90000,-9.56991,-1.12015
32.00000,-9.59986,-1.13981
32.10000,-9.63000,-1.16099
32.20000,-9.65989,-1.18146
32.30000,-9.68991,-1.20329
32.40000,-9.71998,-1.22336
32.50000,-9.74999,-1.24453
32.60000,-9.78001,-1.26402
32.70000,-9.81002,-1.28455
32.80000,-9.83998,-1.30536
32.90000,-9.86999,-1.32040
33.00000,-9.90006,-1.33999
33.10000,-9.92996,-1.35676
33.20000,-9.96003,-1.37395
33.30000,-9.98987,-1.38765
33.40000,-10.02000,-1.40277
33.50000,-10.04984,-1.42145
33.60000,-10.07985,-1.44198
33.70000,-10.10999,-1.46107
33.80000,-10.13988,-1.48327
33.90000,-10.17001,-1.50563
34.00000,-10.19991,-1.52717
34.10000,-10.22986,-1.55091
34.20000,-10.25982,-1.56968
34.30000,-10.28989,-1.59267
34.40000,-10.31997,-1.61161
34.50000,-10.34998,-1.63044
34.60000,-10.38000,-1.64552
34.70000,-10.41001,-1.63457
34.80000,-10.43997,-1.61610
34.90000,-10.46992,-1.59442
35.00000,-10.49999,-1.57728
35.10000,-10.52995,-1.56226
35.20000,-10.56002,-1.54868
35.30000,-10.58986,-1.53210
35.40000,-10.61999,-1.52215
35.50000,-10.64982,-1.51205
35.60000,-10.67996,-1.51217
35.70000,-10.70991,-1.52372
35.80000,-10.74005,-1.54257
35.90000,-10.76988,-1.56145
36.00000,-10.80002,-1.58619
36.10000,-10.82985,-1.61040
36.20000,-10.85987,-1.62927
36.30000,-10.88988,-1.65388
36.40000,-10.91996,-1.67236
36.50000,-10.94991,-1.65353
36.60000,-10.97986,-1.63254
36.70000,-11.01000,-1.61402
36.80000,-11.03995,-1.59508
36.90000,-11.06997,-1.57635
37.00000,-11.10004,-1.56259
37.10000,-11.12994,-1.54567
37.20000,-11.16001,-1.52415
37.30000,-11.18996,-1.50628
37.40000,-11.21998,-1.49184
37.50000,-11.24993,-1.47499
37.60000,-11.28001,-1.46763
37.70000,-11.30990,-1.45525
37.80000,-11.34004,-1.46245
37.90000,-11.36993,-1.48229
38.00000,-11.39994,-1.50424
38.10000,-11.42990,-1.53002
38.20000,-11.45991,-1.55504
38.30000,-11.48993,-1.57969
38.40000,-11.51994,-1.60380
38.50000,-11.54996,-1.63039
38.60000,-11.57991,-1.65541
38.70000,-11.60993,-1.67774
38.80000,-11.63988,-1.70446
38.90000,-11.66995,-1.72901
39.00000,-11.69997,-1.74724
39.10000,-11.73004,-1.75146
39.20000,-11.75994,-1.72265
39.30000,-11.79001,-1.70122
39.40000,-11.81997,-1.67313
39.50000,-11.84998,-1.65613
39.60000,-11.87988,-1.63861
39.70000,-11.90995,-1.61552
39.80000,-11.93990,-1.59234
39.90000,-11.96986,-1.57240
40.00000,-11.99993,-1.55200
40.10000,-12.02995,-1.53050
40.20000,-12.05984,-1.50991
40.30000,-12.08992,-1.49099
40.40000,-12.11993,-1.46896
40.50000,-12.14994,-1.44955
40.60000,-12.17984,-1.43173
40.70000,-12.20997,-1.41488
40.80000,-12.23987,-1.40150
40.90000,-12.26994,-1.40769
41.00000,-12.30002,-1.43863
41.10000,-12.32997,-1.46764
41.20000,-12.35992,-1.49483
41.30000,-12.39000,-1.52324
41.40000,-12.41995,-1.55404
41.50000,-12.44997,-1.58218
41.60000,-12.47992,-1.61122
41.70000,-12.50988,-1.64003
41.80000,-12.54001,-1.66931
41.90000,-12.56985,-1.69700
42.00000,-12.59986,-1.71321
42.10000,-12.62993,-1.67677
42.20000,-12.65989,-1.65645
42.30000,-12.68990,-1.63276
42.40000,-12.71998,-1.60195
42.50000,-12.74999,-1.58088
42.60000,-12.78001,-1.55751
42.70000,-12.81002,-1.52751
42.80000,-12.83997,-1.51237
42.90000,-12.86993,-1.49090
43.00000,-12.89994,-1.47566
43.10000,-12.92996,-1.49014
43.20000,-12.96003,-1.52262
43.30000,-12.98987,-1.55049
43.40000,-13.01994,-1.57957
43.50000,-13.04990,-1.60668
43.60000,-13.07979,-1.61731
43.70000,-13.11004,-1.61823
43.80000,-13.13994,-1.60466
43.90000,-13.16995,-1.58524
44.00000,-13.20009,-1.56614
44.10000,-13.22998,-1.54838
44.20000,-13.26000,-1.53099
44.30000,-13.28995,-1.53486
44.40000,-13.31996,-1.55833
44.50000,-13.34986,-1.58853
44.60000,-13.37993,-1.61618
44.70000,-13.40995,-1.64796
44.80000,-13.43990,-1.67621
44.90000,-13.46992,-1.70591
45.00000,-13.49999,-1.71561
45.10000,-13.52995,-1.68222
45.20000,-13.55996,-1.65573
45.30000,-13.58991,-1.63231
45.40000,-13.61993,-1.60994
45.50000,-13.64988,-1.57892
45.60000,-13.67984,-1.55381
45.70000,-13.70991,-1.53573
45.80000,-13.73987,-1.51765
45.90000,-13.76994,-1.50984
46.00000,-13.79990,-1.54125
46.10000,-13.82997,-1.57399
46.20000,-13.85998,-1.60735
46.30000,-13.88994,-1.64158
46.40000,-13.92007,-1.67681
46.50000,-13.94997,-1.70974
46.60000,-13.97998,-1.74022
46.70000,-14.00999,-1.77552
46.80000,-14.03995,-1.80741
46.90000,-14.07002,-1.83907
47.00000,-14.10004,-1.86990
47.10000,-14.12999,-1.90213
47.20000,-14.16007,-1.91750
47.30000,-14.18996,-1.87152
47.40000,-14.21998,-1.84355
47.50000,-14.24987,-1.81325
47.60000,-14.28001,-1.79028
47.70000,-14.30990,-1.76254
47.80000,-14.33997,-1.73416
47.90000,-14.36987,-1.70997
48.00000,-14.40000,-1.68377
48.10000,-14.42984,-1.65568
48.20000,-14.45991,-1.63137
48.30000,-14.48999,-1.60716
48.40000,-14.51994,-1.57376
48.50000,-14.54995,-1.54880
48.60000,-14.57997,-1.52669
48.70000,-14.60992,-1.49956
48.80000,-14.63982,-1.47589
48.90000,-14.66989,-1.45623
49.00000,-14.69991,-1.43506
49.10000,-14.72992,-1.40522
49.20000,-14.75988,-1.38414
49.30000,-14.78989,-1.36187
49.40000,-14.81984,-1.33590
49.50000,-14.84992,-1.31561
49.60000,-14.87999,-1.32068
49.70000,-14.90989,-1.35870
49.80000,-14.93996,-1.39293
49.90000,-14.96992,-1.42980
50.00000,-14.99999,-1.46603
50.10000,-15.02989,-1.49991
50.20000,-15.05990,-1.53264
50.30000,-15.08997,-1.52327
50.40000,-15.11999,-1.49022
50.50000,-15.14994,-1.45965
50.60000,-15.18002,-1.42614
50.70000,-15.21003,-1.39599
50.80000,-15.23987,-1.36721
50.90000,-15.27000,-1.33184
51.00000,-15.29995,-1.30153
51.10000,-15.33003,-1.28023
51.20000,-15.35992,-1.25389
51.30000,-15.39006,-1.22427
51.40000,-15.41995,-1.22627
51.50000,-15.44997,-1.26486
51.60000,-15.47992,-1.30084
51.70000,-15.50994,-1.34299
51.80000,-15.53989,-1.38047
51.90000,-15.56996,-1.41824
52.00000,-15.59992,-1.45491
52.10000,-15.62993,-1.49311
52.20000,-15.65989,-1.52672
52.30000,-15.68996,-1.56122
52.40000,-15.71986,-1.59453
52.50000,-15.74987,-1.61691
52.60000,-15.77988,-1.59501
52.70000,-15.80990,-1.56630
52.80000,-15.83997,-1.53269
52.90000,-15.86999,-1.50143
53.00000,-15.89988,-1.47134
53.10000,-15.92990,-1.44028
53.20000,-15.95985,-1.41063
53.30000,-15.98993,-1.37851
53.40000,-16.01988,-1.35129
53.50000,-16.05001,-1.32040
53.60000,-16.08003,-1.29461
53.70000,-16.10992,-1.31435
53.80000,-16.14000,-1.35525
53.90000,-16.16995,-1.39412
54.00000,-16.19990,-1.43224
54.10000,-16.22992,-1.47384
54.20000,-16.25999,-1.51462
54.30000,-16.28995,-1.55275
54.40000,-16.31990,-1.59137
54.50000,-16.34986,-1.63158
54.60000,-16.37993,-1.66751
54.70000,-16.40989,-1.70551
54.80000,-16.43996,-1.73964
54.90000,-16.46998,-1.72191
55.00000,-16.50005,-1.68563
55.10000,-16.52994,-1.65222
55.20000,-16.55996,-1.61611
55.30000,-16.58997,-1.58036
55.40000,-16.61999,-1.54938
55.50000,-16.64994,-1.51538
55.60000,-16.67995,-1.48256
55.70000,-16.71003,-1.44865
55.80000,-16.73992,-1.42074
55.90000,-16.77006,-1.41064
56.00000,-16.79989,-1.45523
56.10000,-16.82985,-1.49603
56.20000,-16.85992,-1.54084
56.30000,-16.89000,-1.58246
56.40000,-16.92001,-1.62152
56.50000,-16.94996,-1.66402
56.60000,-16.98004,-1.70626
56.70000,-17.00993,-1.74799
56.80000,-17.03995,-1.78859
56.90000,-17.06996,-1.83349
57.00000,-17.09992,-1.87455
57.10000,-17.12993,-1.91486
57.20000,-17.16000,-1.95874
57.30000,-17.18990,-2.00161
57.40000,-17.21998,-2.04223
57.50000,-17.24993,-2.08287
57.60000,-17.27994,-2.12397
57.70000,-17.30996,-2.16482
57.80000,-17.33997,-2.20713
57.90000,-17.37005,-2.24539
58.00000,-17.39988,-2.27345
58.10000,-17.43001,-2.23904
58.20000,-17.46003,-2.20624
58.30000,-17.48998,-2.17248
58.40000,-17.52000,-2.12898
58.50000,-17.54995,-2.09530
58.60000,-17.58009,-2.05751
58.70000,-17.60992,-2.02318
58.80000,-17.64000,-1.98135
58.90000,-17.67001,-1.94979
59.00000,-17.69996,-1.91609
59.10000,-17.72992,-1.91322
59.20000,-17.75999,-1.95371
59.30000,-17.78989,-1.99907
59.40000,-17.82002,-2.04389
59.50000,-17.84992,-2.09036
59.60000,-17.87993,-2.13242
59.70000,-17.91000,-2.17761
59.80000,-17.93996,-2.21652
59.90000,-17.96991,-2.18777
60.00000,-17.99999,-2.14888
60.10000,-18.02994,-2.11156
60.20000,-18.05990,-2.07175
60.30000,-18.08991,-2.03589
60.40000,-18.11987,-1.99880
60.50000,-18.14994,-1.96016
60.60000,-18.17995,-1.92258
60.70000,-18.20991,-1.89647
60.80000,-18.23992,-1.87545
60.90000,-18.26994,-1.91021
61.00000,-18.29989,-1.95476
61.10000,-18.32997,-2.00075
61.20000,-18.35992,-2.04641
61.30000,-18.38994,-2.09460
61.40000,-18.41995,-2.13882
61.50000,-18.44990,-2.18638
61.60000,-18.47992,-2.22936
61.70000,-18.50987,-2.27694
61.80000,-18.53995,-2.32283
61.90000,-18.56984,-2.36842
62.00000,-18.59980,-2.41512
62.10000,-18.62993,-2.45983
62.20000,-18.65995,-2.50685
62.30000,-18.68996,-2.55217
62.40000,-18.71991,-2.59943
62.50000,-18.74993,-2.59313
62.60000,-18.77994,-2.54720
62.70000,-18.80984,-2.50197
62.80000,-18.83997,-2.46112
62.90000,-18.87004,-2.41622
63.00000,-18.90006,-2.37006
63.10000,-18.93001,-2.32710
63.20000,-18.95991,-2.28665
63.30000,-18.99004,-2.25318
63.40000,-19.01988,-2.21431
63.50000,-19.04995,-2.17895
63.60000,-19.07991,-2.13987
63.70000,-19.11004,-2.11684
63.80000,-19.13982,-2.14900
63.90000,-19.16989,-2.19821
64.00000,-19.19984,-2.24518
64.10001,-19.22998,-2.29034
64.20000,-19.25987,-2.33693
64.30000,-19.28995,-2.38410
64.40000,-19.31990,-2.43031
64.50000,-19.34998,-2.48010
64.60001,-19.37993,-2.52871
64.70000,-19.40988,-2.57162
64.80000,-19.43996,-2.58803
64.90000,-19.46991,-2.55014
65.00000,-19.49993,-2.50491
65.10001,-19.53000,-2.45708
65.20000,-19.55996,-2.40501
65.30000,-19.58997,-2.35572
65.40000,-19.61998,-2.31575
65.50000,-19.64994,-2.28143
65.60001,-19.67989,-2.23720
65.70001,-19.70991,-2.19502
65.80000,-19.73986,-2.18970
65.90000,-19.76982,-2.15810
66.00000,-19.79977,-2.14865
66.10001,-19.82985,-2.18549
66.20001,-19.85992,-2.23436
66.30000,-19.88987,-2.28289
66.40000,-19.91995,-2.33004
66.50000,-19.94996,-2.38070
66.60001,-19.97992,-2.42838
66.70001,-20.00993,-2.47613
66.80000,-20.04001,-2.51981
66.90000,-20.06996,-2.49377
67.00000,-20.10003,-2.44767
67.10001,-20.12987,-2.40927
67.20001,-20.16000,-2.35746
67.30000,-20.19002,-2.31508
67.40000,-20.21997,-2.26526
67.50000,-20.24999,-2.22038
67.60001,-20.28000,-2.18460
67.70001,-20.30990,-2.15014
67.80000,-20.33991,-2.11289
67.90000,-20.36992,-2.14250
68.00000,-20.39988,-2.19338
68.10001,-20.42995,-2.24545
68.20001,-20.45991,-2.29761
68.30000,-20.48992,-2.34826
68.40000,-20.52000,-2.40147
68.50000,-20.55001,-2.45257
68.60001,-20.57997,-2.50224
68.70001,-20.60992,-2.55502
68.80000,-20.63993,-2.60528
68.90000,-20.66989,-2.65475
69.00000,-20.69990,-2.70878
69.10001,-20.72992,-2.75746
69.20001,-20.76005,-2.80902
69.30000,-20.78995,-2.85455
69.40000,-20.82008,-2.88904
69.50000,-20.85004,-2.84914
69.60001,-20.87993,-2.81026
69.70001,-20.91000,-2.76441
69.80000,-20.93996,-2.72090
69.90000,-20.96991,-2.67828
70.00000,-20.99999,-2.63604
70.10001,-21.02988,-2.62184
70.20001,-21.05996,-2.67370
70.30000,-21.09003,-2.72592
70.40000,-21.12004,-2.78346
70.50000,-21.15000,-2.83791
70.60001,-21.17989,-2.89011
70.70001,-21.20997,-2.94667
70.80000,-21.23992,-3.00376
70.90000,-21.26994,-3.05193
71.00000,-21.29989,-3.09933
71.10001,-21.32984,-3.20689
71.20001,-21.35992,-3.31994
71.30000,-21.38987,-3.41406
71.40000,-21.42001,-3.46065
71.50000,-21.44990,-3.40892
71.60001,-21.48004,-3.37232
71.70001,-21.50999,-3.33110
71.80000,-21.54001,-3.28504
71.90000,-21.56996,-3.24352
72.00000,-21.59992,-3.20126
72.10001,-21.62999,-3.14979
72.20001,-21.65982,-3.11503
72.30000,-21.68996,-3.06935
72.40000,-21.71991,-3.07588
72.50000,-21.74993,-3.09092
72.60001,-21.77988,-3.14138
72.70001,-21.80989,-3.18940
72.80000,-21.83991,-3.24866
72.90000,-21.86992,-3.30815
73.00000,-21.89988,-3.35789
73.10001,-21.93001,-3.41287
73.20001,-21.95997,-3.47126
73.30000,-21.98992,-3.52336
73.40000,-22.01993,-3.57377
73.50000,-22.04989,-3.60944
73.60001,-22.08002,-3.63393
73.70001,-22.10992,-3.59218
73.80000,-22.14005,-3.54230
73.90000,-22.16995,-3.50193
74.00000,-22.20008,-3.43666
74.10001,-22.22998,-3.40181
74.20001,-22.25987,-3.35833
74.30000,-22.29006,-3.30531
74.40000,-22.31990,-3.30466
74.50000,-22.34991,-3.32710
74.60001,-22.37987,-3.37057
74.70001,-22.40988,-3.42620
74.80000,-22.44002,-3.48607
74.90000,-22.46997,-3.54584
75.00000,-22.49999,-3.60570
75.10001,-22.53006,-3.66332
75.20001,-22.55989,-3.68470
75.30000,-22.58997,-3.64383
75.40000,-22.61998,-3.59380
75.50000,-22.65000,-3.54550
75.60001,-22.67995,-3.48676
75.70001,-22.70997,-3.44930
75.80000,-22.73992,-3.38711
75.90000,-22.76999,-3.34557
76.00000,-22.79989,-3.29782
76.10001,-22.82996,-3.24704
76.20001,-22.85986,-3.22784
76.30000,-22.88987,-3.21332
76.40000,-22.91989,-3.20013
76.50000,-22.94990,-3.26115
76.60001,-22.97986,-3.32536
76.70001,-23.00993,-3.37939
76.80000,-23.03994,-3.43135
76.90000,-23.06990,-3.48728
77.00000,-23.09991,-3.52835
77.10001,-23.12993,-3.46463
77.20001,-23.15994,-3.42868
77.30000,-23.18996,-3.38063
77.40000,-23.21991,-3.33297
77.50000,-23.24999,-3.34341
77.60001,-23.28000,-3.37299
77.70001,-23.30995,-3.42923
77.80000,-23.33991,-3.49432
77.90000,-23.36998,-3.55398
78.00000,-23.39988,-3.60811
78.10001,-23.42977,-3.66089
78.20001,-23.45991,-3.72046
78.30000,-23.48992,-3.78180
78.40000,-23.51993,-3.73650
78.50000,-23.54995,-3.69129
78.60001,-23.58002,-3.62887
78.70001,-23.60992,-3.58694
78.80000,-23.63993,-3.54665
78.90000,-23.66995,-3.49658
79.00000,-23.70002,-3.45126
79.10001,-23.72992,-3.41733
79.20001,-23.75999,-3.45381
79.30000,-23.78988,-3.51638
79.40000,-23.81990,-3.58588
79.50000,-23.84991,-3.64411
79.60001,-23.87993,-3.70263
79.70001,-23.90988,-3.76214
79.80000,-23.93996,-3.83038
79.90000,-23.96991,-3.89993
79.98200,-23.99442,-4.03468
79.99600,-23.99873,-4.16231
80.01401,-24.00405,-4.29430
80.11401,-24.03406,-4.34347
80.21401,-24.06408,-4.30415
80.31400,-24.09415,-4.25038
80.41400,-24.12411,-4.20897
80.51401,-24.15412,-4.15972
80.61401,-24.18414,-4.11450
80.71401,-24.21415,-4.05651
80.81400,-24.24404,-3.99966
80.91400,-24.27424,-3.95621
81.01401,-24.30413,-3.90247
81.11401,-24.33415,-3.86521
81.21401,-24.36410,-3.83035
81.31400,-24.39424,-3.78148
81.41400,-24.42419,-3.74439
81.51401,-24.45414,-3.72646
81.61401,-24.48416,-3.78655
81.71401,-24.51417,-3.85036
81.81400,-24.54425,-3.91091
81.91400,-24.57414,-3.97180
82.01401,-24.60416,-4.03194
82.11401,-24.63411,-4.10001
82.21401,-24.66412,-4.16125
82.31400,-24.69414,-4.22267
82.41400,-24.72409,-4.28566
82.51401,-24.75411,-4.34303
82.61401,-24.78418,-4.34313
82.71401,-24.81408,-4.27990
82.81400,-24.84409,-4.22416
82.91400,-24.87423,-4.16879
83.01401,-24.90406,-4.11229
83.11401,-24.93426,-4.06786
83.21401,-24.96409,-4.00719
83.31400,-24.99422,-3.95192
83.41400,-25.02412,-3.95056
83.51401,-25.05407,-4.01423
83.61401,-25.08409,-4.07317
83.71401,-25.11416,-4.14064
83.81400,-25.14412,-4.20117
83.91400,-25.17419,-4.26122
84.01401,-25.20414,-4.31958
84.11401,-25.23422,-4.38750
84.21401,-25.26417,-4.45302
84.31400,-25.29413,-4.50887
84.41400,-25.32414,-4.51349
84.51401,-25.35416,-4.45973
84.61401,-25.38411,-4.40203
84.71401,-25.41413,-4.34438
84.81400,-25.44414,-4.29830
84.91400,-25.47403,-4.27072
85.01401,-25.50411,-4.34059
85.11401,-25.53412,-4.40724
85.21401,-25.56414,-4.47463
85.31400,-25.59415,-4.53100
85.41400,-25.62410,-4.59943
85.51401,-25.65412,-4.66801
85.61401,-25.68407,-4.72964
85.71401,-25.71421,-4.79241
85.81400,-25.74416,-4.85286
85.91400,-25.77412,-4.91034
86.01401,-25.80413,-4.88214
86.11401,-25.83409,-4.84882
86.21401,-25.86416,-4.81648
86.31400,-25.89418,-4.77440
86.41400,-25.92419,-4.73525
86.51401,-25.95420,-4.68764
86.61401,-25.98416,-4.62639
86.71401,-26.01405,-4.58183
86.81400,-26.04401,-4.53166
86.91400,-26.07414,-4.47487
87.01401,-26.10415,-4.42715
87.11401,-26.13411,-4.37846
87.21401,-26.16430,-4.33183
87.31400,-26.19420,-4.33617
87.41400,-26.22409,-4.39606
87.51401,-26.25411,-4.46654
87.61401,-26.28424,-4.53260
87.71401,-26.31408,-4.59944
87.81400,-26.34415,-4.66027
87.91400,-26.37411,-4.69582
88.01401,-26.40424,-4.76022
88.11401,-26.43413,-4.82445
88.21401,-26.46421,-4.89682
88.31400,-26.49416,-4.96420
88.41400,-26.52400,-5.02379
88.51401,-26.55413,-4.98337
88.61401,-26.58409,-4.93333
88.71401,-26.61404,-4.87510
88.81400,-26.64417,-4.81329
88.91400,-26.67413,-4.76849
89.01401,-26.70408,-4.70494
89.11401,-26.73410,-4.66053
89.21401,-26.76417,-4.69948
89.31400,-26.79425,-4.76714
89.41400,-26.82420,-4.84149
89.51401,-26.85421,-4.91185
89.61401,-26.88417,-4.97848
89.71401,-26.91418,-5.04649
89.81400,-26.94408,-5.11749
89.91400,-26.97415,-5.19088
90.01401,-27.00411,-5.26086
90.11401,-27.03412,-5.34630
90.15201,-27.04548,-5.49501
90.16000,-27.04793,-5.64158
90.16801,-27.05039,-5.78589
90.17800,-27.05331,-5.92774
90.19601,-27.05876,-6.05602
90.29601,-27.08865,-5.98306
90.39600,-27.11878,-5.92389
90.49600,-27.14880,-5.86149
90.59600,-27.17881,-5.79211
90.69601,-27.20877,-5.73120
90.79601,-27.23884,-5.67911
90.89600,-27.26874,-5.63171
90.99600,-27.29875,-5.57334
91.09600,-27.32876,-5.57796
91.19601,-27.35884,-5.55429
91.29601,-27.38879,-5.59444
91.39600,-27.41881,-5.66345
91.49600,-27.44870,-5.73152
91.59600,-27.47878,-5.79213
91.69601,-27.50879,-5.85504
91.79601,-27.53868,-5.92501
91.89600,-27.56876,-5.99243
91.99600,-27.59877,-6.04470
92.09600,-27.62873,-5.97686
92.19601,-27.65874,-5.91065
92.29601,-27.68864,-5.83596
92.39600,-27.71877,-5.76491
92.49600,-27.74873,-5.70636
92.59600,-27.77868,-5.64558
92.69601,-27.80869,-5.57593
92.79601,-27.83877,-5.51883
92.89600,-27.86878,-5.47577
92.99600,-27.89880,-5.50095
93.09600,-27.92869,-5.55742
93.19601,-27.95877,-5.62466
93.29601,-27.98872,-5.68722
93.39600,-28.01867,-5.75606
93.49600,-28.04875,-5.81136
93.59600,-28.07864,-5.87213
93.69601,-28.10884,-5.92964
93.79601,-28.13873,-5.98451
93.89600,-28.16875,-6.05017
93.99600,-28.19870,-6.12225
94.09600,-28.22872,-6.19469
94.19601,-28.25879,-6.24689
94.29601,-28.28880,-6.13648
94.39600,-28.31888,-6.07355
94.49600,-28.34871,-6.00999
94.59601,-28.37879,-5.93674
94.69601,-28.40874,-5.87482
94.79601,-28.43870,-5.80256
94.89600,-28.46865,-5.73237
94.99600,-28.49872,-5.65974
95.09601,-28.52874,-5.59863
95.19601,-28.55881,-5.53084
95.29601,-28.58871,-5.46605
95.39600,-28.61872,-5.41258
95.49600,-28.64874,-5.36099
95.59601,-28.67875,-5.39139
95.69601,-28.70877,-5.45910
95.79601,-28.73878,-5.53083
95.89600,-28.76873,-5.60232
95.99600,-28.79881,-5.67570
96.09601,-28.82876,-5.74404
96.19601,-28.85872,-5.81481
96.29601,-28.88873,-5.84531
96.39600,-28.91869,-5.89755
96.49600,-28.94876,-5.94002
96.59601,-28.97865,-6.00224
96.69601,-29.00873,-6.06849
96.79601,-29.03880,-6.10077
96.89600,-29.06876,-6.00582
96.99600,-29.09877,-5.94137
97.09601,-29.12879,-5.87983
97.19601,-29.15868,-5.80879
97.29601,-29.18876,-5.73961
97.39600,-29.21871,-5.66202
97.49600,-29.24867,-5.60576
97.59601,-29.27874,-5.54530
97.69601,-29.30875,-5.46787
97.79601,-29.33871,-5.41459
97.89600,-29.36884,-5.40469
97.99600,-29.39880,-5.38569
98.09601,-29.42881,-5.45737
98.19601,-29.45876,-5.52831
98.29601,-29.48878,-5.59923
98.39600,-29.51879,-5.67234
98.49600,-29.54863,-5.74724
98.59601,-29.57870,-5.82250
98.69601,-29.60872,-5.90132
98.79601,-29.63867,-5.97162
98.89600,-29.66875,-6.04221
98.99600,-29.69864,-6.11613
99.09601,-29.72878,-6.19690
99.19601,-29.75867,-6.26647
99.29601,-29.78880,-6.33534
99.39600,-29.81864,-6.39832
99.49600,-29.84877,-6.43722
99.59601,-29.87873,-6.46200
99.69601,-29.90868,-6.51046
99.79601,-29.93870,-6.56036
99.89600,-29.96877,-6.51570
99.99600,-29.99872,-6.44710
100.09601,-30.02874,-6.37886
100.19601,-30.05869,-6.30504
100.29601,-30.08877,-6.22871
100.39600,-30.11872,-6.15312
100.49600,-30.14868,-6.08254
100.59601,-30.17875,-6.01475
100.69601,-30.20870,-5.94373
100.79601,-30.23878,-5.88569
100.89600,-30.26868,-5.86138
100.99600,-30.29875,-5.86919
101.09601,-30.32882,-5.93800
101.19601,-30.35878,-6.01331
101.29601,-30.38879,-6.08978
101.39600,-30.41869,-6.16579
101.49600,-30.44876,-6.24532
101.59601,-30.47877,-6.32013
101.69601,-30.50879,-6.39516
101.79601,-30.53862,-6.46682
101.89600,-30.56882,-6.54402
101.99600,-30.59877,-6.61793
102.09601,-30.62872,-6.69098
102.19601,-30.65874,-6.75723
102.29601,-30.68869,-6.77283
102.37801,-30.71333,-6.64690
102.47801,-30.74334,-6.57462
102.57800,-30.77330,-6.49264
102.67800,-30.80331,-6.42720
102.77801,-30.83333,-6.36370
102.87801,-30.86334,-6.28687
102.97801,-30.89329,-6.20385
103.07800,-30.92343,-6.12986
103.17800,-30.95338,-6.06246
103.27801,-30.98340,-5.97904
103.37801,-31.01329,-5.90934
103.47801,-31.04343,-5.86082
103.57800,-31.07332,-5.80916
103.67800,-31.10339,-5.76489
103.77801,-31.13335,-5.73426
103.87801,-31.16336,-5.75832
103.97801,-31.19332,-5.71770
104.07800,-31.22339,-5.76210
104.17800,-31.25329,-5.84040
104.27801,-31.28336,-5.92273
104.37801,-31.31332,-6.00045
104.47801,-31.34327,-6.07994
104.57800,-31.37322,-6.16127
104.67800,-31.40336,-6.24380
104.77801,-31.43331,-6.20799
104.87801,-31.46327,-6.12046
104.97801,-31.49328,-6.04962
105.07800,-31.52336,-5.98475
105.17800,-31.55331,-5.91349
105.27801,-31.58339,-5.85056
105.37801,-31.61340,-5.78168
105.47801,-31.64329,-5.69989
105.57800,-31.67337,-5.63706
105.67800,-31.70326,-5.58031
105.77801,-31.73322,-5.55282
105.87801,-31.76341,-5.61181
105.97801,-31.79337,-5.67883
106.07800,-31.82344,-5.73933
106.17800,-31.85346,-5.81050
106.27801,-31.88347,-5.87229
106.37801,-31.91337,-5.87833
106.47801,-31.94338,-5.91109
106.57800,-31.97339,-5.88746
106.67800,-32.00334,-5.84073
106.77801,-32.03336,-5.76915
106.87801,-32.06338,-5.74006
106.97801,-32.09339,-5.78854
107.07800,-32.12335,-5.85968
107.17800,-32.15348,-5.94514
107.27801,-32.18337,-6.01817
107.37801,-32.21333,-6.09831
107.47801,-32.24340,-6.17434
107.57800,-32.27330,-6.25890
107.67800,-32.30331,-6.33056
107.77801,-32.33338,-6.33804
107.87801,-32.36328,-6.28791
107.97801,-32.39341,-6.20541
108.07800,-32.42325,-6.10854
108.17800,-32.45338,-6.05320
108.19801,-32.45930,-5.90366
108.20801,-32.46229,-5.77664
108.30801,-32.49242,-5.79232
108.40801,-32.52244,-5.85435
108.50800,-32.55239,-5.84396
108.60800,-32.58235,-5.79226
108.70801,-32.61236,-5.72232
108.80801,-32.64232,-5.64254
108.90801,-32.67239,-5.55274
109.00800,-32.70241,-5.50569
109.10800,-32.73236,-5.49057
109.20801,-32.76237,-5.46564
109.30801,-32.79239,-5.50684
109.40801,-32.82234,-5.56950
109.50800,-32.85236,-5.64272
109.60800,-32.88231,-5.72015
109.70801,-32.91239,-5.79298
109.80801,-32.94228,-5.86355
109.90801,-32.97229,-5.93167
110.00800,-33.00231,-5.99898
110.10800,-33.03238,-6.06667
110.20801,-33.06240,-5.96773
110.30801,-33.09235,-5.90068
110.40801,-33.12243,-5.82027
110.50800,-33.15232,-5.74529
110.60800,-33.18234,-5.66980
110.70801,-33.21229,-5.59149
110.80801,-33.24231,-5.53226
110.90801,-33.27226,-5.48985
111.00800,-33.30233,-5.46237
111.10800,-33.33229,-5.43805
111.20801,-33.36236,-5.40237
111.30801,-33.39226,-5.37938
111.40801,-33.42239,-5.35263
111.50800,-33.45229,-5.34552
111.60800,-33.48236,-5.34871
111.70801,-33.51232,-5.34917
111.80801,-33.54245,-5.35505
111.90801,-33.57234,-5.33899
112.00800,-33.60247,-5.34554
112.10800,-33.63231,-5.35282
112.20801,-33.66233,-5.36677
112.30801,-33.69240,-5.35874
112.40801,-33.72235,-5.34445
112.50800,-33.75237,-5.33740
112.60800,-33.78232,-5.32931
112.70801,-33.81234,-5.34069
112.80801,-33.84223,-5.33943
112.90801,-33.87225,-5.33959
113.00800,-33.90232,-5.34097
113.10800,-33.93227,-5.35752
113.20801,-33.96241,-5.35308
113.30801,-33.99242,-5.36576
113.40801,-34.02238,-5.37179
113.50800,-34.05233,-5.34037
113.60800,-34.08235,-5.35031
113.70801,-34.11230,-5.34294
113.80801,-34.14232,-5.35486
113.90801,-34.17227,-5.35546
114.00800,-34.20234,-5.33487
114.10800,-34.23236,-5.34788
114.20801,-34.26237,-5.33117
114.30801,-34.29239,-5.34989
114.40801,-34.32234,-5.33696
114.50800,-34.35242,-5.34707
114.60800,-34.38231,-5.34523
114.70801,-34.41233,-5.34911
114.80801,-34.44228,-5.33952
114.90801,-34.47235,-5.34697
115.00800,-34.50231,-5.35289
115.10800,-34.53220,-5.33823
115.20801,-34.56234,-5.33554
115.30801,-34.59223,-5.34406
115.40801,-34.62231,-5.34631
115.50800,-34.65232,-5.34885
115.60800,-34.68240,-5.34604
115.70801,-34.71229,-5.33999
115.80801,-34.74236,-5.33927
115.90801,-34.77238,-5.33308
116.00800,-34.80233,-5.32076
116.10800,-34.83235,-5.33571
116.20801,-34.86236,-5.32649
116.30801,-34.89244,-5.32681
116.40801,-34.92245,-5.33891
116.50800,-34.95241,-5.34948
116.60801,-34.98236,-5.33615
116.70801,-35.01243,-5.33096
116.80801,-35.04227,-5.35447
116.90801,-35.07234,-5.35110
117.00800,-35.10224,-5.35007
117.10801,-35.13237,-5.35697
117.20801,-35.16227,-5.34023
117.30801,-35.19234,-5.32588
117.40801,-35.22235,-5.33417
117.50800,-35.25213,-5.34695
117.60801,-35.28238,-5.33879
117.70801,-35.31228,-5.33459
117.80801,-35.34229,-5.35436
117.90801,-35.37230,-5.35216
118.00800,-35.40226,-5.33492
118.10801,-35.43239,-5.33194
118.20801,-35.46229,-5.33142
118.30801,-35.49242,-5.33490
118.40801,-35.52238,-5.33164
118.50800,-35.55233,-5.33548
118.60801,-35.58235,-5.33242
118.70801,-35.61236,-5.35154
118.80801,-35.64237,-5.33115
118.90801,-35.67245,-5.34057
119.00800,-35.70234,-5.34763
119.10801,-35.73242,-5.36434
119.20801,-35.76237,-5.36132
119.30801,-35.79245,-5.35696
119.40801,-35.82234,-5.35079
119.50800,-35.85248,-5.35210
119.60801,-35.88231,-5.35559
119.70801,-35.91233,-5.35511
119.80801,-35.94234,-5.35352
119.90801,-35.97241,-5.33559
120.00800,-36.00243,-5.34428
120.10801,-36.03238,-5.33344
120.20801,-36.06240,-5.33567
120.30801,-36.09241,-5.33963
120.40801,-36.12237,-5.36122
120.50800,-36.15238,-5.34952
120.60801,-36.18239,-5.35449
120.70801,-36.21241,-5.36777
120.80801,-36.24230,-5.35565
120.90801,-36.27232,-5.34214
121.00800,-36.30227,-5.35864
121.10801,-36.33229,-5.36406
121.20801,-36.36230,-5.34465
121.30801,-36.39226,-5.35141
121.40801,-36.42215,-5.35989
121.50800,-36.45223,-5.35963
121.60801,-36.48224,-5.36452
121.70801,-36.51231,-5.36964
121.80801,-36.54227,-5.34708
121.90801,-36.57234,-5.35383
122.00800,-36.60241,-5.35767
122.10801,-36.63237,-5.35738
122.20801,-36.66238,-5.34211
122.30801,-36.69240,-5.35536
122.40801,-36.72241,-5.37848
122.50800,-36.75225,-5.35940
122.60801,-36.78232,-5.36910
122.70801,-36.81233,-5.38684
122.80801,-36.84241,-5.36787
122.90801,-36.87242,-5.38523
123.00800,-36.90244,-5.38407
123.10801,-36.93233,-5.39512
123.20801,-36.96235,-5.39672
123.30801,-36.99236,-5.39192
123.40801,-37.02238,-5.38478
123.50800,-37.05239,-5.39238
123.60801,-37.08241,-5.40958
123.70801,-37.11230,-5.38443
123.80801,-37.14237,-5.38544
123.90801,-37.17227,-5.39718
124.00800,-37.20234,-5.40197
124.10801,-37.23230,-5.38672
124.20801,-37.26237,-5.40391
124.30801,-37.29239,-5.41653
124.40801,-37.32240,-5.39284
124.50800,-37.35236,-5.40133
124.60801,-37.38243,-5.41294
124.70801,-37.41232,-5.42730
124.80801,-37.44228,-5.40926
124.90801,-37.47229,-5.41581
125.00800,-37.50231,-5.44727
125.10801,-37.53232,-5.41546
125.20801,-37.56240,-5.42261
125.30801,-37.59235,-5.42542
125.40801,-37.62225,-5.43527
125.50800,-37.65232,-5.42023
125.60801,-37.68227,-5.42520
125.70801,-37.71235,-5.43545
125.80801,-37.74242,-5.42145
125.90801,-37.77238,-5.41940
126.00800,-37.80239,-5.41773
126.10801,-37.83240,-5.42144
126.20801,-37.86242,-5.41301
126.30801,-37.89237,-5.42178
126.40801,-37.92239,-5.42445
126.50800,-37.95234,-5.42420
126.60801,-37.98236,-5.43697
126.70801,-38.01231,-5.42603
126.80801,-38.04232,-5.42288
126.90801,-38.07234,-5.44077
127.00800,-38.10229,-5.43082
127.10801,-38.13237,-5.43003
127.20801,-38.16232,-5.43322
127.30801,-38.19234,-5.44109
127.40801,-38.22235,-5.44048
127.50800,-38.25231,-5.43127
127.60801,-38.28238,-5.42853
127.70801,-38.31233,-5.42443
127.80801,-38.34229,-5.42113
127.90801,-38.37242,-5.41494
128.00801,-38.40238,-5.43385
128.10800,-38.43245,-5.42367
128.20801,-38.46241,-5.41056
128.30800,-38.49242,-5.41456
128.40801,-38.52238,-5.42185
128.50801,-38.55239,-5.43133
128.60800,-38.58241,-5.42619
128.70801,-38.61236,-5.42722
128.80800,-38.64237,-5.43976
128.90801,-38.67245,-5.42332
129.00801,-38.70228,-5.46039
129.10800,-38.73242,-5.44727
129.20801,-38.76225,-5.44640
129.30800,-38.79233,-5.44395
129.40801,-38.82228,-5.46429
129.50801,-38.85229,-5.44282
129.60800,-38.88237,-5.43673
129.70801,-38.91226,-5.45325
129.80800,-38.94240,-5.44337
129.90801,-38.97229,-5.43910
130.00801,-39.00231,-5.45931
130.10800,-39.03232,-5.45437
130.20801,-39.06228,-5.43010
130.30800,-39.09229,-5.44502
130.40801,-39.12230,-5.45314
130.50801,-39.15226,-5.45366
130.60800,-39.18233,-5.44245
130.70801,-39.21228,-5.46042
130.80800,-39.24230,-5.45769
130.90801,-39.27232,-5.43209
131.00801,-39.30233,-5.45453
131.10800,-39.33235,-5.45600
131.20800,-39.36224,-5.43656
131.30800,-39.39231,-5.45012
131.40800,-39.42233,-5.42960
131.50802,-39.45234,-5.45110
131.60800,-39.48235,-5.43584
131.70800,-39.51249,-5.45240
131.80800,-39.54233,-5.44119
131.90800,-39.57228,-5.44172
132.00802,-39.60229,-5.43655
132.10800,-39.63237,-5.44716
132.20800,-39.66238,-5.46156
132.30800,-39.69240,-5.45852
132.40800,-39.72241,-5.45347
132.50802,-39.75237,-5.45712
132.60800,-39.78244,-5.46933
132.70800,-39.81228,-5.45313
132.80802,-39.84241,-5.45754
132.90800,-39.87236,-5.46852
133.00802,-39.90238,-5.44945
133.10800,-39.93222,-5.47266
133.20800,-39.96229,-5.48610
133.30802,-39.99236,-5.44737
133.40800,-40.02220,-5.48627
133.50802,-40.05233,-5.47353
133.60800,-40.08216,-5.48254
133.70800,-40.11224,-5.45610
133.80802,-40.14243,-5.46507
133.90800,-40.17245,-5.46766
134.00802,-40.20240,-5.45420
134.10800,-40.23230,-5.47154
134.20800,-40.26231,-5.47920
134.30802,-40.29233,-5.48079
134.40800,-40.32234,-5.49820
134.50802,-40.35241,-5.56104
134.60800,-40.38255,-5.60924
134.70800,-40.41238,-5.69452
134.80802,-40.44245,-5.75868
134.90800,-40.47229,-5.82669
135.00802,-40.50237,-5.89850
135.10800,-40.53226,-5.96698
135.20800,-40.56233,-5.92652
135.30802,-40.59223,-5.86351
135.40800,-40.62236,-5.78357
135.50802,-40.65231,-5.66738
135.60800,-40.68239,-5.61334
135.70800,-40.71235,-5.58159
135.80802,-40.74242,-5.65584
135.90800,-40.77225,-5.73406
136.00802,-40.80239,-5.82455
136.10800,-40.83234,-5.80866
136.20800,-40.86236,-5.89581
136.30802,-40.89237,-5.90802
136.40800,-40.92232,-5.82990
136.50802,-40.95234,-5.74551
136.60800,-40.98236,-5.72134
136.70800,-41.01231,-5.78404
136.80802,-41.04245,-5.86172
136.90800,-41.07234,-5.93541
137.00802,-41.10241,-5.98295
137.10800,-41.13231,-5.95293
137.20800,-41.16238,-5.89655
137.30802,-41.19228,-5.94556
137.40800,-41.22229,-6.02176
137.50802,-41.25230,-6.07501
137.60800,-41.28226,-6.11101
137.70800,-41.31221,-6.12825
137.80802,-41.34223,-6.14293
137.90800,-41.37242,-6.06510
138.00802,-41.40238,-5.97351
138.08200,-41.42456,-5.83512
138.09402,-41.42820,-5.69244
138.10600,-41.43185,-5.56232
138.20602,-41.46175,-5.59624
138.30600,-41.49182,-5.71761
138.40600,-41.52178,-5.77711
138.50602,-41.55179,-5.85885
138.60600,-41.58187,-5.94101
138.70602,-41.61182,-6.01281
138.80600,-41.64177,-6.07553
138.90600,-41.67179,-5.97723
139.00602,-41.70186,-5.87191
139.10600,-41.73170,-5.79933
139.20602,-41.76177,-5.71098
139.30600,-41.79173,-5.61423
139.40600,-41.82168,-5.53668
139.50602,-41.85176,-5.49678
139.60600,-41.88177,-5.52309
139.70602,-41.91172,-5.59920
139.80600,-41.94174,-5.68804
139.90600,-41.97181,-5.77954
140.00602,-42.00176,-5.86234
140.10600,-42.03172,-5.92758
140.20602,-42.06174,-5.87328
140.30600,-42.09181,-5.79450
140.40600,-42.12170,-5.71713
140.50602,-42.15172,-5.63704
140.60600,-42.18168,-5.58196
140.70602,-42.21169,-5.63738
140.80600,-42.24170,-5.72297
140.90600,-42.27177,-5.81126
141.00602,-42.30173,-5.89827
141.10600,-42.33181,-5.96887
141.20602,-42.36188,-6.02788
141.30600,-42.39165,-6.06391
141.40600,-42.42161,-6.10129
141.50602,-42.45169,-6.10496
141.60600,-42.48164,-6.13427
141.70602,-42.51159,-6.15735
141.80600,-42.54154,-6.17152
141.90600,-42.57168,-6.19206
142.00602,-42.60163,-6.19266
142.10600,-42.63183,-6.20779
142.20602,-42.66190,-6.12950
142.30600,-42.69180,-6.03955
142.40600,-42.72187,-5.96871
142.50602,-42.75177,-5.90588
142.60600,-42.78184,-5.86974
142.70602,-42.81173,-5.92317
142.80600,-42.84175,-6.01060
142.90600,-42.87170,-6.09841
143.00602,-42.90172,-6.17569
143.10600,-42.93173,-6.20684
143.20602,-42.96175,-6.19095
143.30600,-42.99182,-6.20972
143.40600,-43.02178,-6.21906
143.50602,-43.05173,-6.23097
143.60600,-43.08169,-6.22193
143.70602,-43.11164,-6.25005
143.80600,-43.14153,-6.25758
143.90600,-43.17173,-6.26031
144.00602,-43.20180,-6.27539
144.10600,-43.23176,-6.28110
144.20602,-43.26183,-6.29477
144.30600,-43.29185,-6.28508
144.40600,-43.32174,-6.29286
144.50602,-43.35175,-6.29818
144.60600,-43.38183,-6.31894
144.70602,-43.41179,-6.33043
144.80600,-43.44186,-6.30136
144.90600,-43.47181,-6.34880
145.00602,-43.50183,-6.36847
145.10600,-43.53172,-6.36220
145.20602,-43.56167,-6.36804
145.30600,-43.59175,-6.33680
145.40600,-43.62158,-6.34098
145.50602,-43.65178,-6.33853
145.60600,-43.68173,-6.31982
145.70602,-43.71181,-6.30693
145.80600,-43.74182,-6.24175
145.90600,-43.77171,-6.25364
146.00602,-43.80173,-6.24926
146.10600,-43.83168,-6.23023
146.20602,-43.86182,-6.26936
146.30600,-43.89171,-6.28248
146.40600,-43.92179,-6.22565
146.50602,-43.95180,-6.15235
146.60600,-43.98176,-6.14119
146.70602,-44.01183,-6.21173
146.80600,-44.04184,-6.29236
146.90600,-44.07180,-6.37519
147.00602,-44.10187,-6.40723
147.10600,-44.13177,-6.34144
147.20602,-44.16184,-6.26800
147.30600,-44.19162,-6.19078
147.40600,-44.22181,-6.19543
147.50602,-44.25159,-6.27487
147.60600,-44.28166,-6.35684
147.70602,-44.31161,-6.40827
147.80600,-44.34175,-6.39610
147.90600,-44.37170,-6.39630
148.00602,-44.40178,-6.40683
148.10600,-44.43173,-6.41848
148.20602,-44.46181,-6.41874
148.30600,-44.49176,-6.41549
148.40600,-44.52177,-6.42026
148.50602,-44.55185,-6.42801
148.60600,-44.58175,-6.41792
148.70602,-44.61176,-6.42062
148.80600,-44.64177,-6.41387
148.90600,-44.67179,-6.42079
149.00602,-44.70180,-6.41417
149.10600,-44.73169,-6.41198
149.20602,-44.76171,-6.32453
149.30600,-44.79173,-6.23453
149.40600,-44.82168,-6.14457
149.50602,-44.85163,-6.04129
149.60600,-44.88177,-5.98134
149.70602,-44.91166,-5.97794
149.80600,-44.94167,-6.06826
149.90600,-44.97175,-6.16392
150.00602,-45.00176,-6.26164
150.10600,-45.03178,-6.35045
150.20602,-45.06174,-6.41912
150.30600,-45.09175,-6.43055
150.40600,-45.12170,-6.42025
150.50602,-45.15172,-6.41878
150.60600,-45.18173,-6.41857
150.70602,-45.21174,-6.41205
150.80600,-45.24170,-6.30850
150.90600,-45.27177,-6.22585
151.00602,-45.30173,-6.12966
151.10600,-45.33180,-6.02393
151.20602,-45.36188,-5.95695
151.30600,-45.39177,-5.91865
151.40600,-45.42178,-5.98072
151.50602,-45.45168,-6.06112
151.60600,-45.48163,-6.13256
151.70602,-45.51165,-6.20931
151.80600,-45.54166,-6.18836
151.90600,-45.57180,-6.09535
152.00602,-45.60175,-6.00787
152.10600,-45.63177,-5.92095
152.20602,-45.66178,-5.95237
152.30600,-45.69174,-6.05135
152.40600,-45.72175,-6.14396
152.50602,-45.75183,-6.24632
152.60600,-45.78172,-6.33688
152.70602,-45.81179,-6.41671
152.80600,-45.84175,-6.45322
152.90600,-45.87182,-6.44751
153.00602,-45.90171,-6.44418
153.10600,-45.93179,-6.44124
153.20602,-45.96169,-6.33837
153.30600,-45.99158,-6.25366
153.40600,-46.02178,-6.15534
153.50602,-46.05179,-6.05773
153.60600,-46.08174,-5.97529
153.70602,-46.11176,-5.90701
153.80600,-46.14177,-5.93995
153.90600,-46.17167,-6.02045
154.00602,-46.20162,-6.12042
154.10600,-46.23176,-6.21234
154.20602,-46.26177,-6.30612
154.30600,-46.29178,-6.39315
154.40600,-46.32180,-6.44815
154.50602,-46.35175,-6.34295
154.60600,-46.38176,-6.26428
154.70602,-46.41172,-6.16126
154.80600,-46.44168,-6.04667
154.90600,-46.47181,-5.96397
155.00602,-46.50170,-5.87452
155.10600,-46.53184,-5.78317
155.20602,-46.56173,-5.71820
155.30600,-46.59175,-5.69464
155.40600,-46.62176,-5.76027
155.50602,-46.65178,-5.85103
155.60600,-46.68173,-5.94580
155.70602,-46.71174,-6.03772
155.80602,-46.74182,-6.12386
155.89802,-46.76938,-5.99746
155.98002,-46.79396,-6.12670
156.08000,-46.82391,-6.22023
156.18002,-46.85398,-6.27823
156.28002,-46.88394,-6.19972
156.38000,-46.91395,-6.11148
156.48002,-46.94397,-6.05327
156.58000,-46.97398,-6.12178
156.68002,-47.00399,-6.21894
156.78002,-47.03395,-6.28015
156.88000,-47.06402,-6.19247
156.98002,-47.09398,-6.09511
157.08000,-47.12387,-5.99760
157.18002,-47.15389,-5.89037
157.28002,-47.18390,-5.80884
157.38000,-47.21391,-5.73463
157.48002,-47.24393,-5.78547
157.58000,-47.27400,-5.89749
157.68002,-47.30396,-5.99720
157.78002,-47.33397,-6.09500
157.88000,-47.36393,-6.15453
157.98002,-47.39400,-6.17338
158.08000,-47.42390,-6.22566
158.18002,-47.45391,-6.29602
158.28002,-47.48392,-6.29462
158.38000,-47.51388,-6.19663
158.48002,-47.54395,-6.13106
158.58000,-47.57391,-6.08203
158.68002,-47.60398,-6.07104
158.78002,-47.63400,-6.13909
158.88000,-47.66401,-6.23697
158.98002,-47.69397,-6.32827
159.08000,-47.72398,-6.41192
159.18002,-47.75393,-6.45890
159.28002,-47.78389,-6.35397
159.38000,-47.81396,-6.28327
159.48002,-47.84386,-6.19022
159.58000,-47.87375,-6.12527
159.68002,-47.90389,-6.17209
159.78002,-47.93390,-6.28356
159.88000,-47.96397,-6.37655
159.98002,-47.99393,-6.45797
160.08000,-48.02406,-6.46777
160.18002,-48.05401,-6.43130
160.28002,-48.08391,-6.43469
160.38000,-48.11399,-6.44303
160.48002,-48.14394,-6.45939
160.58000,-48.17395,-6.46517
160.68002,-48.20397,-6.45756
160.78002,-48.23393,-6.46262
160.88000,-48.26406,-6.45076
160.98002,-48.29402,-6.45067
161.08000,-48.32408,-6.46615
161.18002,-48.35398,-6.46228
161.28002,-48.38394,-6.45605
161.38000,-48.41389,-6.46371
161.48002,-48.44390,-6.44498
161.58000,-48.47386,-6.47499
161.68002,-48.50394,-6.46966
161.78002,-48.53395,-6.46887
161.88000,-48.56390,-6.46356
161.98002,-48.59398,-6.46393
162.08000,-48.62399,-6.46878
162.18002,-48.65400,-6.45051
162.28002,-48.68396,-6.45173
162.38000,-48.71397,-6.45705
162.48002,-48.74393,-6.46689
162.58000,-48.77395,-6.47342
162.68002,-48.80396,-6.47169
162.78002,-48.83385,-6.46902
162.88000,-48.86386,-6.46669
162.98002,-48.89394,-6.47195
163.08000,-48.92395,-6.47815
163.18002,-48.95391,-6.47691
163.28002,-48.98398,-6.49263
163.38000,-49.01382,-6.48897
163.48002,-49.04389,-6.48404
163.58000,-49.07385,-6.48930
163.68002,-49.10380,-6.50294
163.78002,-49.13394,-6.49202
163.88000,-49.16389,-6.47270
163.98002,-49.19402,-6.48950
164.08000,-49.22398,-6.49819
164.18002,-49.25393,-6.49387
164.28002,-49.28389,-6.48671
164.38000,-49.31396,-6.48823
164.48002,-49.34391,-6.50508
164.58000,-49.37405,-6.49034
164.68002,-49.40389,-6.48483
164.78002,-49.43396,-6.47939
164.88000,-49.46398,-6.48249
164.98002,-49.49404,-6.46974
165.08000,-49.52400,-6.48975
165.18002,-49.55396,-6.48156
165.28002,-49.58403,-6.48126
165.38000,-49.61392,-6.49057
165.48002,-49.64400,-6.49723
165.58000,-49.67384,-6.49449
165.68002,-49.70403,-6.48638
165.78002,-49.73386,-6.47973
165.88000,-49.76388,-6.50787
165.98002,-49.79395,-6.49034
166.08000,-49.82390,-6.47657
166.18002,-49.85392,-6.47751
166.28002,-49.88388,-6.47349
166.38000,-49.91395,-6.45962
166.48002,-49.94391,-6.47103
166.58000,-49.97386,-6.45895
166.68002,-50.00393,-6.45211
166.78002,-50.03395,-6.46628
166.88000,-50.06390,-6.47856
166.98002,-50.09403,-6.47641
167.08000,-50.12393,-6.48214
167.18002,-50.15400,-6.49122
167.28002,-50.18396,-6.48842
167.38000,-50.21391,-6.47635
167.48002,-50.24387,-6.49475
167.58000,-50.27400,-6.48662
167.68002,-50.30390,-6.48756
167.78002,-50.33397,-6.48222
167.88000,-50.36386,-6.49264
167.98002,-50.39388,-6.48699
168.08000,-50.42395,-6.50236
168.18002,-50.45391,-6.50666
168.28002,-50.48392,-6.48416
168.38000,-50.51388,-6.48411
168.48002,-50.54389,-6.50378
168.58000,-50.57391,-6.49786
168.68002,-50.60392,-6.50019
168.78002,-50.63382,-6.50065
168.88000,-50.66395,-6.49122
168.98002,-50.69384,-6.48004
169.08000,-50.72380,-6.48374
169.18002,-50.75393,-6.48383
169.28002,-50.78389,-6.47751
169.38000,-50.81402,-6.48985
169.48002,-50.84392,-6.48484
169.58000,-50.87393,-6.46741
169.68002,-50.90401,-6.46553
169.78002,-50.93384,-6.46457
169.88000,-50.96397,-6.45870
169.98002,-50.99392,-6.46535
170.08000,-51.02400,-6.44707
170.18002,-51.05395,-6.44056
170.28002,-51.08397,-6.43497
170.38000,-51.11404,-6.42519
170.48002,-51.14406,-6.42012
170.58000,-51.17395,-6.42303
170.68002,-51.20397,-6.42795
170.78002,-51.23392,-6.43016
170.88000,-51.26393,-6.44840
170.98002,-51.29389,-6.42235
171.08000,-51.32396,-6.40904
171.18002,-51.35392,-6.41589
171.28002,-51.38405,-6.42161
171.38000,-51.41395,-6.41248
171.48002,-51.44396,-6.40400
171.58000,-51.47392,-6.41405
171.68002,-51.50399,-6.39855
171.78002,-51.53388,-6.41685
171.88000,-51.56408,-6.42335
171.98002,-51.59386,-6.41440
172.08000,-51.62393,-6.41254
172.18002,-51.65388,-6.43067
172.28002,-51.68396,-6.43205
172.38000,-51.71397,-6.41158
172.48002,-51.74404,-6.41187
172.58000,-51.77400,-6.41356
172.68002,-51.80402,-6.41742
172.78002,-51.83397,-6.41201
172.88000,-51.86398,-6.41432
172.98002,-51.89394,-6.41140
173.08000,-51.92401,-6.40326
173.18002,-51.95396,-6.43509
173.28002,-51.98410,-6.43409
173.38000,-52.01405,-6.43048
173.48002,-52.04407,-6.45232
173.58000,-52.07397,-6.54874
173.68002,-52.10386,-6.62762
173.78002,-52.13387,-6.70148
173.88000,-52.16388,-6.76422
173.98002,-52.19396,-6.83468
174.08000,-52.22392,-6.87924
174.18002,-52.25399,-6.93847
174.28002,-52.28389,-7.00968
174.38000,-52.31396,-7.03378
174.48002,-52.34391,-7.05724
174.58000,-52.37387,-7.12121
174.68002,-52.40370,-7.13002
174.77200,-52.43157,-7.00363
174.87202,-52.46164,-6.88654
174.95800,-52.48741,-6.76125
175.05802,-52.51725,-6.66737
175.15800,-52.54732,-6.55843
175.25802,-52.57727,-6.47839
175.35800,-52.60729,-6.55022
175.45800,-52.63730,-6.66386
175.55802,-52.66738,-6.77672
175.65800,-52.69733,-6.89685
175.75802,-52.72734,-7.00821
175.85800,-52.75736,-7.12241
175.95800,-52.78731,-7.20455
176.05802,-52.81727,-7.26986
176.15800,-52.84722,-7.26633
176.25802,-52.87735,-7.31565
176.35800,-52.90731,-7.29109
176.43400,-52.93021,-7.16596
176.53402,-52.96017,-7.07704
176.62202,-52.98659,-6.95106
176.72000,-53.01595,-6.82577
176.82000,-53.04608,-6.74049
176.92002,-53.07592,-6.64109
177.02000,-53.10605,-6.54295
177.12002,-53.13594,-6.66320
177.22000,-53.16584,-6.77607
177.32000,-53.19598,-6.88483
177.42002,-53.22587,-6.98708
177.52000,-53.25594,-7.07521
177.62002,-53.28577,-7.03138
177.72000,-53.31585,-6.92319
177.82000,-53.34605,-6.80081
177.92002,-53.37618,-6.72862
178.02000,-53.40607,-6.78736
178.12002,-53.43591,-6.90313
178.22000,-53.46580,-7.01050
178.32000,-53.49600,-6.95459
178.42002,-53.52601,-6.84865
178.52000,-53.55591,-6.75105
178.62002,-53.58592,-6.69112
178.72000,-53.61593,-6.81361
178.82000,-53.64601,-6.91559
178.92002,-53.67596,-6.98118
179.02000,-53.70604,-6.95977
179.12002,-53.73593,-6.94871
179.22000,-53.76607,-7.02487
179.32000,-53.79590,-7.08716
179.42002,-53.82592,-6.97618
179.52000,-53.85593,-6.89074
179.62002,-53.88594,-6.77878
179.72000,-53.91596,-6.72493
179.82000,-53.94591,-6.83905
179.92002,-53.97593,-6.94909
180.02000,-54.00588,-7.05650
180.12002,-54.03590,-7.03190
180.22000,-54.06585,-6.97390
180.32000,-54.09587,-7.06283
180.42002,-54.12594,-7.18509
180.52000,-54.15602,-7.28708
180.62002,-54.18591,-7.32735
180.70800,-54.21233,-7.20064
180.80802,-54.24247,-7.09279
180.90800,-54.27236,-6.97925
181.00802,-54.30244,-6.87517
181.10800,-54.33233,-6.89115
181.20800,-54.36235,-7.01151
181.30802,-54.39242,-7.13156
181.40800,-54.42238,-7.25396
181.50802,-54.45233,-7.37211
181.60800,-54.48241,-7.47484
181.70800,-54.51230,-7.54156
181.80802,-54.54225,-7.66691
181.90800,-54.57233,-7.73890
182.00802,-54.60234,-7.81201
182.10800,-54.63242,-7.88677
182.20800,-54.66231,-7.97306
182.30802,-54.69233,-8.08705
182.40800,-54.72228,-8.05822
182.50802,-54.75236,-8.01495
182.60800,-54.78231,-8.02265
182.70800,-54.81238,-8.12145
182.80802,-54.84246,-8.22683
182.90800,-54.87235,-8.30297
183.00802,-54.90243,-8.35185
183.10800,-54.93238,-8.38484
183.20800,-54.96245,-8.41913
183.30802,-54.99229,-8.43912
183.40800,-55.02237,-8.47909
183.50802,-55.05232,-8.49911
183.60800,-55.08239,-8.52808
183.70800,-55.11235,-8.55248
183.80802,-55.14230,-8.55462
183.90800,-55.17232,-8.58364
184.00802,-55.20233,-8.55918
184.10800,-55.23235,-8.63809
184.20800,-55.26230,-8.62624
184.30802,-55.29231,-8.53280
184.40800,-55.32227,-8.42320
184.50202,-55.35055,-8.29722
184.60200,-55.38044,-8.28693
184.70202,-55.41052,-8.39502
184.80200,-55.44059,-8.51536
184.90202,-55.47055,-8.63585
185.00202,-55.50062,-8.73874
185.10200,-55.53057,-8.80714
185.20202,-55.56065,-8.81917
185.30200,-55.59060,-8.84615
185.40202,-55.62067,-8.87578
185.50202,-55.65051,-8.90179
185.60200,-55.68071,-8.92317
185.70202,-55.71048,-8.95266
185.80200,-55.74055,-8.97573
185.90202,-55.77063,-8.97064
186.00202,-55.80052,-8.94587
186.10200,-55.83048,-8.98342
186.20202,-55.86049,-9.07163
186.30200,-55.89015,-9.13224
186.40202,-55.92034,-9.21159
186.50202,-55.95054,-9.31024
186.60200,-55.98061,-9.34177
186.69802,-56.00943,-9.21432
186.77602,-56.03275,-9.08916
186.87600,-56.06270,-9.04288
186.97602,-56.09284,-8.96038
187.07600,-56.12279,-9.01691
187.17602,-56.15274,-9.12732
187.27602,-56.18282,-9.24589
187.37600,-56.21272,-9.35577
187.47602,-56.24279,-9.41514
187.53802,-56.26144,-9.28916
187.62600,-56.28775,-9.16355
187.72602,-56.31777,-9.06542
187.79400,-56.33833,-8.93597
187.89402,-56.36828,-8.81875
187.99400,-56.39812,-8.79798
188.09402,-56.42808,-8.77820
188.19402,-56.45821,-8.89267
188.29200,-56.48757,-9.01805
188.39202,-56.51758,-8.98360
188.47202,-56.54162,-8.85700
188.57200,-56.57157,-8.73343
188.67202,-56.60158,-8.68596
188.77200,-56.63154,-8.65185
188.87202,-56.66149,-8.69127
188.97202,-56.69157,-8.80505
189.07200,-56.72158,-8.92740
189.17202,-56.75148,-9.00197
189.21200,-56.76350,-8.87333
189.29600,-56.78873,-8.74805
189.39602,-56.81880,-8.62708
189.47402,-56.84218,-8.50083
189.57400,-56.87219,-8.37738
189.67402,-56.90209,-8.28742
189.77400,-56.93228,-8.23137
189.86202,-56.95859,-8.10567
189.96200,-56.98860,-7.98699
190.05402,-57.01616,-7.86128
190.14402,-57.04313,-7.73555
190.22802,-57.06836,-7.60789
190.32800,-57.09826,-7.51931
190.42802,-57.12827,-7.43139
190.52802,-57.15840,-7.34495
190.62800,-57.18830,-7.42676
190.72802,-57.21837,-7.54558
190.82800,-57.24827,-7.66671
190.92202,-57.27655,-7.79378
191.02200,-57.30656,-7.90893
191.12002,-57.33592,-8.03615
191.22002,-57.36594,-8.15819
191.32000,-57.39583,-8.18038
191.42002,-57.42596,-8.06221
191.52000,-57.45592,-7.99077
191.62002,-57.48593,-7.89630
191.72002,-57.51600,-7.96698
191.82000,-57.54596,-8.08472
191.92002,-57.57597,-8.19612
192.02000,-57.60587,-8.29962
192.12002,-57.63600,-8.36572
192.19402,-57.65819,-8.23815
192.27200,-57.68162,-8.11220
192.35800,-57.70745,-7.98608
192.45800,-57.73735,-7.92184
192.55802,-57.76736,-7.91451
192.65800,-57.79732,-8.01732
192.75802,-57.82739,-8.12163
192.77400,-57.83217,-7.96193
192.78002,-57.83391,-7.82894
192.78602,-57.83570,-7.67849
192.79200,-57.83749,-7.53072
192.80000,-57.83994,-7.37948
192.87402,-57.86213,-7.51777
192.93002,-57.87905,-7.65030
193.03002,-57.90900,-7.66017
193.13000,-57.93890,-7.74597
193.22202,-57.96652,-7.87260
193.32200,-57.99647,-7.97851
193.42202,-58.02661,-8.10139
193.52200,-58.05650,-8.22041
193.62202,-58.08652,-8.34645
193.72202,-58.11653,-8.47451
193.82200,-58.14661,-8.58617
193.86002,-58.15797,-8.45086
193.91602,-58.17471,-8.32328
194.01600,-58.20466,-8.22468
194.11602,-58.23479,-8.13043
194.19202,-58.25758,-8.00295
194.29200,-58.28747,-7.92687
194.38000,-58.31389,-7.79533
194.45800,-58.33733,-7.66641
194.55802,-58.36735,-7.59272
194.65800,-58.39736,-7.58468
194.75802,-58.42744,-7.66763
194.85800,-58.45733,-7.77935
194.95800,-58.48734,-7.89969
195.05802,-58.51730,-8.02622
195.15800,-58.54731,-7.91940
195.25802,-58.57739,-7.83924
195.35800,-58.60740,-7.77711
195.45800,-58.63730,-7.79652
195.55200,-58.66558,-7.92248
195.65202,-58.69553,-8.04723
195.75202,-58.72555,-8.11617
195.85200,-58.75550,-8.00464
195.95202,-58.78557,-7.98132
196.05200,-58.81559,-8.02567
196.15202,-58.84555,-8.13480
196.25202,-58.87556,-8.24915
196.35200,-58.90557,-8.27244
196.44202,-58.93248,-8.14281
196.52802,-58.95831,-8.01187
196.61402,-58.98408,-7.88465
196.71400,-59.01421,-7.85850
196.81402,-59.04411,-7.78990
196.91402,-59.07424,-7.86626
197.01400,-59.10419,-7.84230
197.11402,-59.13415,-7.79238
197.20202,-59.16052,-7.66232
197.30200,-59.19053,-7.55884
197.40202,-59.22060,-7.53056
197.50202,-59.25056,-7.55901
197.60200,-59.28046,-7.61059
197.70202,-59.31059,-7.72400
197.80200,-59.34060,-7.82222
197.90202,-59.37061,-7.85514
198.00202,-59.40057,-7.73114
198.10200,-59.43046,-7.69805
198.20002,-59.45988,-7.82467
198.30000,-59.48989,-7.78186
198.40002,-59.51985,-7.68806
198.48600,-59.54574,-7.56262
198.58602,-59.57587,-7.46483
198.68600,-59.60577,-7.45319
198.78602,-59.63584,-7.41476
198.88602,-59.66573,-7.45808
198.98600,-59.69581,-7.46456
199.08602,-59.72570,-7.45641
199.18600,-59.75572,-7.40415
199.28602,-59.78574,-7.43835
199.38602,-59.81581,-7.45842
199.48600,-59.84564,-7.51858
199.58602,-59.87578,-7.40998
199.68600,-59.90579,-7.36907
199.78602,-59.93586,-7.34828
199.88602,-59.96576,-7.45262
199.98600,-59.99571,-7.57223
200.08602,-60.02567,-7.63928
200.18600,-60.05568,-7.57135
200.28602,-60.08570,-7.53691
200.38602,-60.11571,-7.61768
200.48600,-60.14567,-7.71045
200.58002,-60.17400,-7.83576
200.64202,-60.19242,-7.71058
200.72402,-60.21705,-7.58537
200.82400,-60.24713,-7.49981
200.92402,-60.27714,-7.43956
201.02400,-60.30716,-7.43606
201.12402,-60.33717,-7.55761
201.22402,-60.36712,-7.65433
201.32400,-60.39714,-7.62250
201.42402,-60.42716,-7.66326
201.52400,-60.45711,-7.57400
201.61202,-60.48359,-7.44790
201.71200,-60.51367,-7.34442
201.81202,-60.54368,-7.41778
201.91200,-60.57364,-7.53866
202.01002,-60.60312,-7.66380
202.11002,-60.63289,-7.77366
202.19602,-60.65872,-7.64714
202.28402,-60.68509,-7.52061
202.38400,-60.71510,-7.42379
202.48402,-60.74511,-7.50305
202.58402,-60.77507,-7.62053
202.67802,-60.80329,-7.74636
202.77802,-60.83336,-7.85761
202.83402,-60.85005,-7.73131
202.93200,-60.87958,-7.60617
202.99200,-60.89752,-7.47900
203.09202,-60.92759,-7.38616
203.17402,-60.95223,-7.25831
203.27400,-60.98218,-7.14746
203.37402,-61.01226,-7.06982
203.47402,-61.04215,-7.01507
203.57400,-61.07217,-7.06716
203.66802,-61.10027,-7.19403
203.76800,-61.13040,-7.30736
203.86802,-61.16035,-7.40316
203.92402,-61.17722,-7.27777
204.02400,-61.20723,-7.17109
204.12402,-61.23718,-7.04878
204.22402,-61.26713,-6.94862
204.32400,-61.29715,-6.84324
204.42402,-61.32717,-6.71942
204.52402,-61.35712,-6.62303
204.62402,-61.38714,-6.55721
204.72402,-61.41721,-6.68268
204.82400,-61.44710,-6.80595
204.92002,-61.47604,-6.93178
205.02000,-61.50600,-7.01978
205.12002,-61.53595,-7.10645
205.19202,-61.55754,-6.98080
205.26400,-61.57918,-6.85469
205.36402,-61.60914,-6.75409
205.46400,-61.63915,-6.66580
205.54600,-61.66379,-6.53904
205.64602,-61.69374,-6.45352
205.74600,-61.72375,-6.44239
205.84002,-61.75203,-6.56883
205.94000,-61.78193,-6.66824
206.04002,-61.81194,-6.77223
206.14002,-61.84195,-6.86250
206.24000,-61.87185,-6.82333
206.34002,-61.90186,-6.80092
206.44000,-61.93194,-6.85950
206.54002,-61.96183,-6.87155
206.64002,-61.99191,-6.83137
206.74000,-62.02192,-6.78345
206.84002,-62.05200,-6.70784
206.94000,-62.08189,-6.60040
207.04002,-62.11197,-6.49042
207.14002,-62.14192,-6.47104
207.24000,-62.17193,-6.50026
207.34002,-62.20195,-6.52045
207.44000,-62.23202,-6.54435
207.54002,-62.26192,-6.41894
207.64002,-62.29193,-6.42712
207.74000,-62.32195,-6.44631
207.84002,-62.35190,-6.42064
207.94000,-62.38197,-6.49783
208.03802,-62.41139,-6.62426
208.13802,-62.44135,-6.73909
208.23800,-62.47136,-6.80581
208.31602,-62.49479,-6.67999
208.41602,-62.52481,-6.56867
208.51600,-62.55471,-6.47361
208.61602,-62.58478,-6.47651
208.71600,-62.61486,-6.56174
208.81602,-62.64475,-6.46880
208.91200,-62.67369,-6.34289
209.01202,-62.70353,-6.27242
209.11202,-62.73353,-6.15780
209.21200,-62.76355,-6.12132
209.31202,-62.79362,-6.14065
209.41200,-62.82346,-6.24897
209.51202,-62.85360,-6.35193
209.61202,-62.88355,-6.45484
209.71200,-62.91356,-6.57825
209.81202,-62.94358,-6.45243
209.90202,-62.97072,-6.32489
210.00202,-63.00056,-6.23357
210.08002,-63.02393,-6.10745
210.18002,-63.05389,-6.03615
210.28002,-63.08384,-5.98667
210.38000,-63.11386,-5.94190
210.48002,-63.14399,-5.94723
210.58002,-63.17407,-5.91304
210.68002,-63.20390,-5.88809
210.78002,-63.23404,-5.82417
210.88000,-63.26393,-5.80955
210.98002,-63.29400,-5.75678
211.08002,-63.32384,-5.73651
211.18002,-63.35403,-5.75277
211.28002,-63.38393,-5.77265
211.38000,-63.41400,-5.74983
211.48002,-63.44396,-5.73705
211.58002,-63.47403,-5.76272
211.68002,-63.50392,-5.72323
211.78002,-63.53394,-5.72511
211.88000,-63.56401,-5.76056
211.98002,-63.59397,-5.80818
212.08002,-63.62405,-5.88612
212.18002,-63.65400,-5.83625
212.28002,-63.68395,-5.74642
212.38000,-63.71391,-5.70333
212.48002,-63.74398,-5.74582
212.58002,-63.77393,-5.85176
212.68002,-63.80383,-5.97879
212.78002,-63.83397,-6.10284
212.88000,-63.86386,-6.18565
212.93600,-63.88072,-6.05781
213.03602,-63.91086,-6.00409
213.13602,-63.94069,-5.88551
213.23600,-63.97076,-5.76453
213.33602,-64.00072,-5.72174
213.43600,-64.03067,-5.74201
213.53602,-64.06074,-5.80326
213.63602,-64.09070,-5.92276
213.73600,-64.12083,-6.02999
213.83602,-64.15073,-5.97598
213.93600,-64.18074,-5.85233
214.03602,-64.21076,-5.74726
214.13602,-64.24077,-5.74986
214.23600,-64.27079,-5.77716
214.33602,-64.30074,-5.88780
214.43600,-64.33075,-5.99993
214.53602,-64.36070,-6.12208
214.63602,-64.39073,-6.06086
214.73600,-64.42068,-5.94447
214.82600,-64.44764,-5.81661
214.89602,-64.46875,-5.69107
214.95800,-64.48735,-5.65439
