Time,Extension,Load
(sec),(mm),(N)
0.00000,0.00000,-0.06933
0.10000,-0.01608,0.00654
0.20000,-0.05052,0.00351
0.30000,-0.08532,-0.04730
0.40000,-0.11808,-0.63208
0.50000,-0.14929,-1.41209
0.60000,-0.17979,-2.17646
0.70000,-0.20998,-3.03840
0.80000,-0.24011,-3.80551
0.90000,-0.27013,-4.72311
1.00000,-0.30008,-5.63220
1.10000,-0.33016,-6.57921
1.20000,-0.36011,-7.51866
1.30000,-0.39007,-8.46628
1.40000,-0.42008,-9.46815
1.50000,-0.45016,-10.51339
1.60000,-0.48005,-11.49375
1.70000,-0.51006,-12.56792
1.80000,-0.54014,-13.67610
1.90000,-0.57003,-14.72832
2.00000,-0.60011,-15.80842
2.10000,-0.63000,-16.93943
2.20000,-0.65996,-17.99353
2.30000,-0.68997,-19.19635
2.40000,-0.71993,-20.34884
2.50000,-0.75000,-21.47008
2.60000,-0.77989,-22.58293
2.70000,-0.80991,-23.66334
2.80000,-0.83998,-24.15290
2.90000,-0.87006,-24.37903
3.00000,-0.90001,-24.61449
3.10000,-0.93003,-25.45071
3.20000,-0.95998,-26.63414
3.30000,-0.98999,-27.83670
3.40000,-1.02001,-29.10930
3.50000,-1.05002,-30.30109
3.60000,-1.08010,-31.58063
3.70000,-1.10999,-32.67728
3.80000,-1.14001,-33.89314
3.90000,-1.17002,-35.10789
4.00000,-1.19992,-36.25767
4.10000,-1.22999,-37.50256
4.20000,-1.25988,-38.69304
4.30000,-1.29002,-39.84332
4.40000,-1.32003,-41.10708
4.50000,-1.35005,-42.35256
4.60000,-1.38006,-43.57542
4.70000,-1.41002,-44.68649
4.80000,-1.44003,-45.86873
4.90000,-1.46998,-47.12747
5.00000,-1.49988,-48.31873
5.10000,-1.53001,-49.53538
5.20000,-1.55991,-50.70777
5.30000,-1.59004,-51.92579
5.40000,-1.61994,-53.09015
5.50000,-1.65007,-54.31791
5.60000,-1.68008,-55.51883
5.70000,-1.70998,-56.68710
5.80000,-1.73999,-57.89390
5.90000,-1.76995,-59.11561
6.00000,-1.80002,-60.30170
6.10000,-1.83004,-61.53564
6.20000,-1.85999,-62.70280
6.30000,-1.89001,-63.96040
6.40000,-1.91996,-65.09291
6.50000,-1.95003,-66.33230
6.60000,-1.98005,-67.50336
6.70000,-2.01000,-68.67909
6.80000,-2.04008,-69.89127
6.90000,-2.07003,-71.13033
7.00000,-2.09999,-72.29963
7.10000,-2.13006,-73.54732
7.20000,-2.16002,-74.71433
7.30000,-2.19003,-75.91848
7.40000,-2.21992,-77.05816
7.50000,-2.25000,-78.25045
7.60000,-2.27995,-79.45613
7.70000,-2.30997,-80.62168
7.80000,-2.33992,-81.83338
7.90000,-2.37006,-83.03263
8.00000,-2.39995,-84.17900
8.10000,-2.42996,-85.43097
8.20000,-2.45998,-86.51805
8.30000,-2.48987,-87.69192
8.40000,-2.51995,-88.93315
8.50000,-2.54990,-90.05948
8.60000,-2.57998,-91.27025
8.70000,-2.60993,-92.45049
8.80000,-2.63995,-93.62404
8.90000,-2.66984,-94.79364
9.00000,-2.69997,-95.95337
9.10000,-2.72993,-97.23310
9.20000,-2.76006,-98.36085
9.30000,-2.78996,-99.53842
9.40000,-2.81997,-100.70350
9.50000,-2.85005,-101.91727
9.60000,-2.87988,-103.07790
9.70000,-2.91001,-104.19448
9.80000,-2.94003,-105.42591
9.90000,-2.97004,-106.54700
10.00000,-3.00000,-107.71403
10.10000,-3.02995,-108.95041
10.20000,-3.06009,-110.08822
10.30000,-3.08998,-111.30011
10.40000,-3.12000,-112.51612
10.50000,-3.15001,-113.63558
10.60000,-3.18002,-114.84714
10.70000,-3.21004,-115.92315
10.80000,-3.24011,-117.08508
10.90000,-3.27001,-118.25637
11.00000,-3.30008,-119.45299
11.10000,-3.33010,-120.65502
11.20000,-3.36017,-121.80707
11.30000,-3.39000,-122.99997
11.40000,-3.42014,-124.14505
11.50000,-3.44997,-125.35620
11.60000,-3.47999,-126.52736
11.70000,-3.51000,-127.59801
11.80000,-3.54008,-128.80344
11.90000,-3.57003,-129.93143
12.00000,-3.60005,-131.06569
12.10000,-3.62994,-132.30084
12.20000,-3.66001,-133.43496
12.30000,-3.68997,-134.57744
12.40000,-3.72004,-135.72710
12.50000,-3.75000,-136.86674
12.60000,-3.78001,-138.06573
12.70000,-3.81003,-139.16939
12.80000,-3.83998,-140.39599
12.90000,-3.86999,-141.51464
13.00000,-3.90007,-142.69854
13.10000,-3.93002,-143.91388
13.20000,-3.95998,-144.99812
13.30000,-3.98993,-146.14376
13.40000,-4.02007,-147.26887
13.50000,-4.05008,-148.36805
13.60000,-4.08004,-149.55085
13.70000,-4.11005,-150.68565
13.80000,-4.14000,-151.84049
13.90000,-4.17002,-153.04390
14.00000,-4.19991,-154.16449
14.10000,-4.22999,-155.33882
14.20000,-4.26000,-156.46519
14.30000,-4.29014,-157.63029
14.40000,-4.32003,-158.75390
14.50000,-4.35005,-159.84626
14.60000,-4.37994,-161.02228
14.70000,-4.40995,-162.13810
14.80000,-4.44003,-163.32923
14.90000,-4.47004,-164.45501
15.00000,-4.50006,-165.62330
15.10000,-4.53007,-166.79436
15.20000,-4.55991,-167.89641
15.30000,-4.58998,-169.05637
15.40000,-4.61999,-170.23487
15.50000,-4.65001,-171.38112
15.60000,-4.68008,-172.53600
15.70000,-4.71004,-173.67518
15.80000,-4.73999,-174.83670
15.90000,-4.76995,-175.98070
16.00000,-4.79996,-177.11196
16.10000,-4.82998,-178.30756
16.20000,-4.85999,-179.37286
16.30000,-4.88988,-180.55065
16.40000,-4.91990,-181.70388
16.50000,-4.95003,-182.92218
16.60000,-4.97993,-184.14004
16.70000,-5.00994,-185.23797
16.80000,-5.03990,-186.44307
16.90000,-5.06985,-187.62929
17.00000,-5.09992,-188.71943
17.10000,-5.13000,-189.92323
17.20000,-5.15989,-191.06492
17.30000,-5.19003,-192.23377
17.40000,-5.22004,-193.43365
17.50000,-5.25000,-194.59570
17.60000,-5.28001,-195.77391
17.70000,-5.31003,-196.90059
17.80000,-5.33998,-198.03826
17.90000,-5.37005,-199.19308
18.00000,-5.40007,-200.39029
18.10000,-5.43014,-201.53020
18.20000,-5.46004,-202.63255
18.30000,-5.49005,-203.85005
18.40000,-5.51995,-204.89875
18.50000,-5.54996,-206.05218
18.60000,-5.57992,-207.21782
18.70000,-5.60993,-208.28089
18.80000,-5.63994,-209.40034
18.90000,-5.66996,-210.50846
19.00000,-5.69997,-211.60964
19.10000,-5.72993,-212.79138
19.20000,-5.75994,-213.92256
19.30000,-5.79008,-215.04816
19.40000,-5.81997,-216.21780
19.50000,-5.84998,-217.28536
19.60000,-5.88000,-218.43426
19.70000,-5.90995,-219.46618
19.80000,-5.93997,-220.58310
19.90000,-5.97004,-221.69003
20.00000,-6.00000,-222.79179
20.10000,-6.03001,-223.95343
20.20000,-6.06002,-224.96527
20.30000,-6.08986,-226.13680
20.40000,-6.11993,-227.18661
20.50000,-6.15001,-228.27035
20.60000,-6.17996,-229.38410
20.70000,-6.20998,-230.40617
20.80000,-6.23993,-231.49719
20.90000,-6.26995,-232.57636
21.00000,-6.30002,-233.64455
21.10000,-6.32991,-234.79968
21.20000,-6.36011,-235.90798
21.30000,-6.39000,-236.94916
21.40000,-6.42002,-238.05633
21.50000,-6.45003,-239.05899
21.60000,-6.47981,-240.12534
21.70000,-6.51006,-241.16464
21.80000,-6.53995,-242.23445
21.90000,-6.57003,-243.31756
22.00000,-6.60004,-244.37020
22.10000,-6.63006,-245.51133
22.20000,-6.66007,-246.57380
22.30000,-6.69009,-247.61679
22.40000,-6.72010,-248.68289
22.50000,-6.75006,-249.72865
22.60000,-6.77995,-250.79526
22.70000,-6.80996,-251.76020
22.80000,-6.83998,-252.83961
22.90000,-6.86999,-253.87984
23.00000,-6.90007,-254.96323
23.10000,-6.93002,-256.03045
23.20000,-6.96016,-257.08156
23.30000,-6.98999,-258.07712
23.40000,-7.02012,-259.10391
23.50000,-7.04996,-260.15522
23.60000,-7.08009,-261.18314
23.70000,-7.10993,-262.17474
23.80000,-7.14006,-263.21169
23.90000,-7.17002,-264.24559
24.00000,-7.20003,-265.31283
24.10000,-7.22999,-266.39611
24.20000,-7.25994,-267.37841
24.30000,-7.29007,-268.37407
24.40000,-7.32009,-269.44906
24.50000,-7.35010,-270.40485
24.60000,-7.38000,-271.41528
24.70000,-7.40995,-272.34100
24.80000,-7.43991,-273.37689
24.90000,-7.46998,-274.42226
25.00000,-7.49993,-275.45083
25.10000,-7.53001,-276.47352
25.20000,-7.56002,-277.48067
25.30000,-7.58992,-278.45491
25.40000,-7.61999,-279.49193
25.50000,-7.65001,-280.44647
25.60000,-7.68008,-281.43309
25.70000,-7.71004,-282.37347
25.80000,-7.74005,-283.36177
25.90000,-7.76994,-284.34450
26.00000,-7.80002,-285.34975
26.10000,-7.83003,-286.34397
26.20000,-7.85993,-287.30921
26.30000,-7.88994,-288.27710
26.40000,-7.91996,-289.24540
26.50000,-7.95003,-290.19214
26.60000,-7.97999,-291.19782
26.70000,-8.01006,-292.07569
26.80000,-8.04001,-293.10441
26.90000,-8.07009,-294.06035
27.00000,-8.10004,-295.01716
27.10000,-8.13006,-296.01464
27.20000,-8.16001,-296.97955
27.30000,-8.19009,-297.89109
27.40000,-8.22004,-298.83081
27.50000,-8.25005,-299.79723
27.60000,-8.28013,-300.73281
27.70000,-8.31002,-301.58993
27.80000,-8.33980,-302.54619
27.90000,-8.36987,-303.44222
28.00000,-8.39989,-304.34068
28.10000,-8.42996,-305.31485
28.20000,-8.45998,-306.25189
28.30000,-8.49005,-307.19753
28.40000,-8.52006,-308.05083
28.50000,-8.55002,-309.02702
28.60000,-8.58003,-309.94937
28.70000,-8.61005,-310.80479
28.80000,-8.64000,-311.71190
28.90000,-8.67002,-312.60896
29.00000,-8.69991,-313.49737
29.10000,-8.72993,-314.39755
29.20000,-8.75994,-315.28458
29.30000,-8.78995,-316.14278
29.40000,-8.81991,-317.01725
29.50000,-8.84992,-317.93810
29.60000,-8.88000,-318.86619
29.70000,-8.90995,-319.65535
29.80000,-8.93985,-320.58079
29.90000,-8.97010,-321.48432
30.00000,-9.00005,-322.38152
30.10000,-9.02989,-323.26661
30.20000,-9.05996,-324.02039
30.30000,-9.09016,-324.94411
30.40000,-9.11999,-325.77239
30.50000,-9.15001,-326.60656
30.60000,-9.18008,-327.55930
30.70000,-9.20997,-328.30041
30.80000,-9.23993,-329.22514
30.90000,-9.27006,-330.11746
31.00000,-9.29996,-330.91087
31.10000,-9.32991,-331.81082
31.20000,-9.36005,-332.63396
31.30000,-9.39006,-333.43539
31.40000,-9.42002,-334.25819
31.50000,-9.45003,-335.10722
31.60000,-9.47998,-335.96337
31.70000,-9.51000,-336.78845
31.80000,-9.54007,-337.60127
31.90000,-9.57003,-338.44292
32.00000,-9.60010,-339.29389
32.10000,-9.62988,-340.10161
32.20000,-9.66013,-340.90687
32.30000,-9.69002,-341.75549
32.40000,-9.72010,-342.51072
32.50000,-9.74999,-343.29060
32.60000,-9.77989,-344.10294
32.70000,-9.80996,-344.86931
32.80000,-9.83998,-345.67986
32.90000,-9.86993,-346.49689
33.00000,-9.90001,-347.33754
33.10000,-9.92996,-348.14820
33.20000,-9.96003,-348.97357
33.30000,-9.99005,-349.70105
33.40000,-10.02006,-350.49442
33.50000,-10.04996,-351.32717
33.60000,-10.07991,-352.11433
33.70000,-10.10999,-352.82243
33.80000,-10.13994,-353.66107
33.90000,-10.17013,-354.42259
34.00000,-10.20003,-355.19443
34.10000,-10.22998,-355.98055
34.20000,-10.26000,-356.76289
34.30000,-10.29001,-357.51376
34.40000,-10.32003,-358.28494
34.50000,-10.35004,-359.11582
34.60000,-10.38006,-359.89270
34.70000,-10.41007,-360.62311
34.80000,-10.43997,-361.35778
34.90000,-10.46992,-362.08142
35.00000,-10.49993,-362.88749
35.10000,-10.52995,-363.63792
35.20000,-10.56002,-364.35694
35.30000,-10.58992,-365.10985
35.40000,-10.62005,-365.85007
35.50000,-10.65001,-366.59442
35.60000,-10.68002,-367.37889
35.70000,-10.70985,-368.02385
35.80000,-10.74011,-368.78701
35.90000,-10.76994,-369.54779
36.00000,-10.79996,-370.28674
36.10000,-10.82997,-371.03672
36.20000,-10.86005,-371.72917
36.30000,-10.89006,-372.46373
36.40000,-10.92001,-373.16553
36.50000,-10.95003,-373.87200
36.60000,-10.97998,-374.62410
36.70000,-11.00994,-375.28936
36.80000,-11.03995,-375.95708
36.90000,-11.07003,-376.71532
37.00000,-11.09998,-377.37530
37.10000,-11.13000,-378.09581
37.20000,-11.15989,-378.76058
37.30000,-11.18990,-379.42614
37.40000,-11.21998,-380.13622
37.50000,-11.24993,-380.83956
37.60000,-11.28007,-381.51860
37.70000,-11.30996,-382.18714
37.80000,-11.33998,-382.86306
37.90000,-11.36999,-383.57098
38.00000,-11.39994,-384.21180
38.10000,-11.43002,-384.89178
38.20000,-11.46003,-385.54199
38.30000,-11.49005,-386.22305
38.40000,-11.52006,-386.84655
38.50000,-11.54996,-387.47303
38.60000,-11.57997,-388.23016
38.70000,-11.61010,-388.80248
38.80000,-11.64000,-389.47772
38.90000,-11.67007,-390.12216
39.00000,-11.69997,-390.79379
39.10000,-11.73004,-391.44300
39.20000,-11.75994,-392.09258
39.30000,-11.79007,-392.69280
39.40000,-11.81991,-393.34189
39.50000,-11.85004,-393.94472
39.60000,-11.87999,-394.60484
39.70000,-11.90995,-395.16978
39.80000,-11.93996,-395.77164
39.90000,-11.97004,-396.40274
40.00000,-11.99987,-396.99510
40.10000,-12.02989,-397.66029
40.20000,-12.05990,-398.23536
40.30000,-12.08997,-398.82958
40.40000,-12.12005,-399.45349
40.50000,-12.15000,-400.07662
40.60000,-12.18008,-400.65054
40.70000,-12.20991,-401.25806
40.80000,-12.23999,-401.77077
40.90000,-12.27006,-402.41256
41.00000,-12.30008,-403.00060
41.10000,-12.33009,-403.59661
41.20000,-12.36004,-404.11863
41.30000,-12.39012,-404.69203
41.40000,-12.42007,-405.22937
41.50000,-12.45003,-405.82675
41.60000,-12.47998,-406.42414
41.70000,-12.51006,-406.95965
41.80000,-12.54001,-407.48749
41.90000,-12.56997,-408.08223
42.00000,-12.59998,-408.65321
42.10000,-12.62999,-409.25644
42.20000,-12.66007,-409.78096
42.30000,-12.68996,-410.32959
42.40000,-12.72004,-410.82915
42.50000,-12.74999,-411.39223
42.60000,-12.78001,-411.95810
42.70000,-12.81008,-412.51041
42.80000,-12.84009,-413.00677
42.90000,-12.86999,-413.56944
43.00000,-12.90000,-414.07485
43.10000,-12.92996,-414.66046
43.20000,-12.95997,-415.15440
43.30000,-12.99005,-415.65690
43.40000,-13.02006,-416.14123
43.50000,-13.05007,-416.68661
43.60000,-13.07991,-417.18330
43.70000,-13.10998,-417.63686
43.80000,-13.13994,-418.13273
43.90000,-13.16995,-418.72788
44.00000,-13.19997,-419.20390
44.10000,-13.22998,-419.67668
44.20000,-13.26000,-420.15169
44.30000,-13.29001,-420.61582
44.40000,-13.32014,-421.14254
44.50000,-13.35004,-421.60582
44.60000,-13.38011,-422.11931
44.70000,-13.41001,-422.55793
44.80000,-13.44002,-423.09292
44.90000,-13.47004,-423.51518
45.00000,-13.50005,-423.99544
45.10000,-13.52995,-424.48703
45.20000,-13.56002,-424.88635
45.30000,-13.59003,-425.35227
45.40000,-13.61993,-425.79617
45.50000,-13.65000,-426.23382
45.60000,-13.67996,-426.64126
45.70000,-13.70997,-427.03900
45.80000,-13.73993,-427.32451
45.90000,-13.76988,-427.55362
46.00000,-13.79990,-427.80284
46.10000,-13.82991,-427.85585
46.20000,-13.85998,-428.04543
46.30000,-13.89000,-428.25326
46.40000,-13.92001,-428.50815
46.50000,-13.95009,-428.71427
46.60000,-13.98004,-428.78442
46.70000,-14.00999,-428.83143
46.75800,-14.02739,-415.49534
46.76000,-14.02799,-402.63928
46.76200,-14.02859,-386.48386
46.76400,-14.02919,-368.17349
46.76600,-14.02979,-348.13531
46.76800,-14.03044,-326.76343
46.77000,-14.03104,-304.69200
46.77200,-14.03164,-282.45395
46.77400,-14.03224,-260.35622
46.77600,-14.03283,-238.65465
