Time,Extension,Load
(sec),(mm),(N)
0.00000,-0.00006,-1.77152
0.10000,-0.01901,-0.71791
0.20000,-0.05704,-0.18640
0.30000,-0.09524,0.15984
0.40000,-0.13130,-1.69867
0.50000,-0.16586,-1.78288
0.60000,-0.19976,-1.81970
0.70000,-0.23336,-2.37118
0.80000,-0.26672,-2.65515
0.90000,-0.30008,-3.16159
1.00000,-0.33339,-2.82083
1.10000,-0.36675,-3.03664
1.20000,-0.40005,-3.79023
1.30000,-0.43341,-3.71190
1.40000,-0.46672,-3.67038
1.50000,-0.50002,-4.17917
1.60000,-0.53338,-3.44555
1.70000,-0.56663,-4.29354
1.80000,-0.59993,-4.35268
1.90000,-0.63335,-5.07141
2.00000,-0.66665,-4.90965
2.10000,-0.70008,-5.46387
2.20000,-0.73332,-5.20066
2.30000,-0.76662,-6.06079
2.40000,-0.80004,-5.37182
2.50000,-0.83341,-6.44855
2.60000,-0.86671,-6.22568
2.70000,-0.90007,-7.14573
2.80000,-0.93337,-6.78892
2.90000,-0.96668,-6.64791
3.00000,-0.99998,-7.26128
3.10000,-1.03334,-7.27264
3.20000,-1.06670,-8.35719
3.30000,-1.09995,-8.37834
3.40000,-1.13337,-8.19425
3.50000,-1.16667,-8.99524
3.60000,-1.19992,-8.77276
3.70000,-1.23340,-8.86872
3.80000,-1.26664,-9.57374
3.90000,-1.29994,-9.21379
4.00000,-1.33331,-9.99636
4.10000,-1.36667,-9.73472
4.20000,-1.40009,-10.31754
4.30000,-1.43333,-10.70961
4.40000,-1.46676,-10.26388
4.50000,-1.50006,-10.82476
4.60000,-1.53336,-10.75113
4.70000,-1.56672,-11.07309
4.80000,-1.60003,-10.90584
4.90000,-1.63333,-11.58893
5.00000,-1.66675,-11.12165
5.10000,-1.69999,-12.08518
5.20000,-1.73336,-12.31705
5.30000,-1.76672,-12.40988
5.40000,-1.80002,-12.55206
5.50000,-1.83327,-12.72871
5.60000,-1.86651,-13.03226
5.70000,-1.90005,-13.30643
5.80000,-1.93323,-13.98012
5.90000,-1.96666,-13.83833
6.00000,-1.99996,-13.52930
6.10000,-2.03332,-13.53909
6.20000,-2.06668,-14.03025
6.30000,-2.09999,-14.59231
6.40000,-2.13329,-14.99574
6.50000,-2.16665,-14.24372
6.60000,-2.19995,-15.35608
6.70000,-2.23332,-15.11481
6.80000,-2.26674,-15.08896
6.90000,-2.29992,-15.45674
7.00000,-2.33329,-16.01723
7.10000,-2.36665,-16.18291
7.20000,-2.39995,-16.70620
7.30000,-2.43325,-16.83662
7.40000,-2.46656,-17.25611
7.50000,-2.49998,-17.38145
7.60000,-2.53328,-18.19966
7.70000,-2.56658,-17.39163
7.80000,-2.60001,-17.83188
7.90000,-2.63325,-17.84089
8.00000,-2.66667,-18.42644
8.10000,-2.70003,-18.70806
8.20000,-2.73340,-18.97636
8.30000,-2.76664,-19.09073
8.40000,-2.80000,-18.80833
8.50000,-2.83331,-19.01553
8.60000,-2.86673,-19.24779
8.70000,-2.90009,-19.45499
8.80000,-2.93345,-19.64534
8.90000,-2.96664,-19.95399
9.00000,-3.00012,-20.49646
9.10000,-3.03324,-20.66958
9.20000,-3.06660,-20.08598
9.30000,-3.09997,-21.42043
9.40000,-3.13333,-20.93161
9.50000,-3.16675,-21.64290
9.60000,-3.20005,-21.31272
9.70000,-3.23330,-22.29779
9.80000,-3.26666,-23.18298
9.90000,-3.30002,-22.07923
10.00000,-3.33332,-22.74469
10.10000,-3.36669,-22.18616
10.20000,-3.39987,-22.94288
10.30000,-3.43335,-23.23899
10.40000,-3.46666,-22.94758
10.50000,-3.50014,-23.33612
10.60000,-3.53344,-22.82146
10.70000,-3.56668,-23.95458
10.80000,-3.59993,-23.96085
10.90000,-3.63323,-23.29656
11.00000,-3.66659,-24.11008
11.10000,-3.69995,-24.10694
11.20000,-3.73326,-24.64119
11.30000,-3.76662,-24.44927
11.40000,-3.80004,-24.46220
11.50000,-3.83328,-25.00075
11.60000,-3.86665,-24.63924
11.70000,-3.90001,-25.23341
11.80000,-3.93337,-25.65407
11.90000,-3.96667,-25.63880
12.00000,-3.99998,-25.85970
12.10000,-4.03334,-26.09745
12.20000,-4.06664,-26.27958
12.30000,-4.10006,-26.37123
12.40000,-4.13343,-26.25295
12.50000,-4.16679,-27.18945
12.60000,-4.20003,-27.31165
12.70000,-4.23334,-27.46441
12.80000,-4.26670,-27.07743
12.90000,-4.29994,-26.75939
13.00000,-4.33330,-27.52120
13.10000,-4.36661,-27.89721
13.20000,-4.39997,-29.27944
13.30000,-4.43333,-27.89995
13.40000,-4.46675,-28.90069
13.50000,-4.50000,-29.14236
13.60000,-4.53336,-29.27748
13.70000,-4.56660,-29.02524
13.80000,-4.59997,-29.07538
13.90000,-4.63333,-29.84738
14.00000,-4.66663,-29.49408
14.10000,-4.69999,-29.41065
14.20000,-4.73330,-30.60057
14.30000,-4.76672,-30.12742
14.40000,-4.80002,-30.21790
14.50000,-4.83332,-31.30912
14.60000,-4.86675,-31.84611
14.70000,-4.89999,-31.27661
14.80000,-4.93329,-31.77208
14.90000,-4.96665,-31.88841
15.00000,-4.99990,-32.04704
15.10000,-5.03332,-32.20958
15.20000,-5.06674,-32.85703
15.30000,-5.10004,-32.79122
15.40000,-5.13335,-32.82295
15.50000,-5.16665,-33.37091
15.60000,-5.20001,-32.73012
15.70000,-5.23332,-33.12728
15.80000,-5.26662,-34.14251
15.90000,-5.29998,-33.67485
16.00000,-5.33328,-33.51269
16.10000,-5.36677,-34.24748
16.20000,-5.40007,-34.29644
16.30000,-5.43331,-34.69713
16.40000,-5.46667,-35.78168
16.50000,-5.50004,-34.95603
16.60000,-5.53340,-35.37669
16.70000,-5.56664,-35.29640
16.80000,-5.59988,-35.57488
16.90000,-5.63325,-35.96773
17.00000,-5.66661,-35.58820
17.10000,-5.69997,-36.07701
17.20000,-5.73339,-36.95828
17.30000,-5.76664,-35.81341
17.40000,-5.80000,-36.91833
17.50000,-5.83330,-36.66883
17.60000,-5.86655,-37.52817
17.70000,-5.89985,-37.65625
17.80000,-5.93315,-38.10472
17.90000,-5.96669,-37.38795
18.00000,-6.00023,-38.08201
18.10000,-6.03342,-37.93121
18.20000,-6.06672,-38.36245
18.30000,-6.10008,-38.79094
18.40000,-6.13339,-39.36475
18.50000,-6.16669,-39.31070
18.60000,-6.19987,-39.23824
18.70000,-6.23323,-39.30953
18.80000,-6.26654,-39.56803
18.90000,-6.29996,-39.93699
19.00000,-6.33326,-39.53317
19.10000,-6.36668,-39.27153
19.20000,-6.40005,-40.44225
19.30000,-6.43341,-40.19001
19.40000,-6.46671,-40.45283
19.50000,-6.50008,-41.25381
19.60000,-6.53332,-40.80064
19.70000,-6.56662,-41.46297
19.80000,-6.60010,-41.81039
19.90000,-6.63335,-41.81783
20.00000,-6.66659,-41.70111
20.10000,-6.69995,-42.63644
20.20000,-6.73331,-42.20872
20.30000,-6.76668,-42.95134
20.40000,-6.79998,-42.43590
20.50000,-6.83334,-42.71085
20.60000,-6.86658,-43.12525
20.70000,-6.89995,-43.07316
20.80000,-6.93331,-43.34302
20.90000,-6.96661,-43.12642
21.00000,-6.99998,-43.79854
21.10000,-7.03328,-44.02572
21.20000,-7.06664,-44.67629
21.30000,-7.10006,-43.83262
21.40000,-7.13331,-43.26860
21.50000,-7.16667,-43.69044
21.60000,-7.19991,-42.32466
21.70000,-7.23333,-43.75624
21.80000,-7.26664,-43.51379
21.90000,-7.30000,-43.23022
22.00000,-7.33336,-43.47032
22.10000,-7.36660,-43.24706
22.20000,-7.39997,-43.57803
22.30000,-7.43339,-43.32187
22.40000,-7.46675,-45.13142
22.50000,-7.49993,-44.84315
22.60000,-7.53324,-44.50160
22.70000,-7.56654,-44.40094
22.80000,-7.59990,-45.00804
22.90000,-7.63327,-45.29279
23.00000,-7.66645,-45.91869
23.10000,-7.69987,-45.42753
23.20000,-7.73335,-46.55674
23.30000,-7.76672,-46.08947
23.40000,-7.79990,-45.75458
23.50000,-7.83320,-46.56418
23.60000,-7.86680,-45.97823
23.70000,-7.90017,-46.92883
23.80000,-7.93341,-46.78939
23.90000,-7.96665,-47.51635
24.00000,-7.99995,-46.96878
24.10000,-8.03332,-46.65857
24.20000,-8.06668,-47.33030
24.30000,-8.10004,-47.52692
24.40000,-8.13334,-47.42587
24.50000,-8.16665,-47.94484
24.60000,-8.20001,-47.70514
24.70000,-8.23343,-48.10661
24.80000,-8.26674,-48.51238
24.90000,-8.29998,-48.49515
25.00000,-8.33346,-49.16962
25.10000,-8.36676,-48.56839
25.20000,-8.40007,-50.00742
25.30000,-8.43343,-48.53354
25.40000,-8.46673,-50.33134
25.50000,-8.49986,-49.61496
25.60000,-8.53328,-49.55425
25.70000,-8.56664,-50.11474
25.80000,-8.60000,-50.97212
25.90000,-8.63342,-49.43674
26.00000,-8.66673,-51.06181
26.10000,-8.70003,-50.52796
26.20000,-8.73327,-51.12566
26.30000,-8.76664,-50.95371
26.40000,-8.80006,-51.19812
26.50000,-8.83342,-51.54005
26.60000,-8.86666,-50.73594
26.70000,-8.89991,-52.37903
26.80000,-8.93327,-51.68106
26.90000,-8.96675,-51.57961
27.00000,-9.00005,-52.64850
27.10000,-9.03324,-51.26862
27.20000,-9.06672,-52.38608
27.30000,-9.09996,-52.38921
27.40000,-9.13332,-49.99489
27.50000,-9.16663,-50.47077
27.60000,-9.20005,-51.43313
27.70000,-9.23335,-51.54358
27.80000,-9.26665,-51.77154
27.90000,-9.29996,-51.94230
28.00000,-9.33332,-51.85261
28.10000,-9.36668,-52.17614
28.20000,-9.39999,-52.60111
28.30000,-9.43329,-52.93639
28.40000,-9.46665,-51.66970
28.50000,-9.49995,-52.44796
28.60000,-9.53332,-52.41937
28.70000,-9.56662,-52.43347
28.80000,-9.60010,-53.02647
28.90000,-9.63340,-52.86510
29.00000,-9.66665,-53.17414
29.10000,-9.70007,-52.79147
29.20000,-9.73331,-53.74794
29.30000,-9.76674,-53.51254
29.40000,-9.80010,-53.79103
29.50000,-9.83340,-53.77536
29.60000,-9.86676,-53.90265
29.70000,-9.90006,-54.52895
29.80000,-9.93337,-54.29551
29.90000,-9.96661,-54.32253
30.00000,-9.99991,-55.15603
30.10000,-10.03322,-55.18931
30.20000,-10.06658,-55.14271
30.30000,-10.10000,-54.86461
30.40000,-10.13324,-55.20028
30.50000,-10.16661,-55.08669
30.60000,-10.19997,-56.05532
30.70000,-10.23333,-55.31975
30.80000,-10.26663,-55.20028
30.90000,-10.30000,-54.85443
31.00000,-10.33330,-56.08430
31.10000,-10.36660,-56.74545
31.20000,-10.39997,-56.49125
31.30000,-10.43327,-56.67573
31.40000,-10.46657,-56.93267
31.50000,-10.49999,-56.80851
31.60000,-10.53342,-56.91387
31.70000,-10.56678,-57.45870
31.80000,-10.60002,-57.63809
31.90000,-10.63332,-57.62869
32.00000,-10.66663,-57.56719
32.10000,-10.70011,-57.42070
32.20000,-10.73341,-58.12690
32.30000,-10.76665,-57.85312
32.40000,-10.80008,-57.76421
32.50000,-10.83338,-58.20954
32.60000,-10.86656,-58.10222
32.70000,-10.89999,-58.17782
32.80000,-10.93329,-58.98584
32.90000,-10.96677,-58.35329
33.00000,-11.00001,-58.83270
33.10000,-11.03338,-58.25733
33.20000,-11.06668,-60.44955
33.30000,-11.10004,-59.35011
33.40000,-11.13334,-58.74967
33.50000,-11.16671,-59.49856
33.60000,-11.20007,-59.60666
33.70000,-11.23331,-59.78135
33.80000,-11.26667,-60.54238
33.90000,-11.29992,-60.23569
34.00000,-11.33340,-61.20040
34.10000,-11.36664,-60.81968
34.20000,-11.40001,-61.25327
34.30000,-11.43331,-60.60387
34.40000,-11.46679,-60.74252
34.50000,-11.50003,-60.64343
34.60000,-11.53333,-61.28970
34.70000,-11.56658,-61.49885
34.80000,-11.59994,-60.78756
34.90000,-11.63336,-61.15378
35.00000,-11.66667,-61.47418
35.10000,-11.70009,-61.20157
35.20000,-11.73339,-61.78595
35.30000,-11.76669,-61.89288
35.40000,-11.80006,-61.89640
35.50000,-11.83330,-61.84509
35.60000,-11.86654,-62.02448
35.70000,-11.89990,-62.56069
35.80000,-11.93333,-62.30218
35.90000,-11.96669,-62.54894
36.00000,-11.99999,-62.73773
36.10000,-12.03341,-63.22654
36.20000,-12.06684,-63.05421
36.30000,-12.10008,-63.29978
36.40000,-12.13338,-63.49562
36.50000,-12.16669,-63.16583
36.60000,-12.19993,-63.37812
36.70000,-12.23329,-64.33342
36.80000,-12.26665,-64.23354
36.90000,-12.30002,-63.73181
37.00000,-12.33332,-63.57474
37.10000,-12.36662,-63.66170
37.20000,-12.39998,-63.16662
37.30000,-12.43335,-63.62683
37.40000,-12.46671,-64.18576
37.50000,-12.49995,-64.24334
37.60000,-12.53325,-64.60172
37.70000,-12.56668,-64.71414
37.80000,-12.60010,-64.43957
37.90000,-12.63340,-64.96520
38.00000,-12.66671,-62.20270
38.10000,-12.70007,-63.92726
38.20000,-12.73343,-63.99344
38.30000,-12.76667,-64.36241
38.40000,-12.79998,-63.91707
38.50000,-12.83328,-64.46973
38.60000,-12.86658,-64.53866
38.70000,-12.90000,-65.04941
38.80000,-12.93331,-64.71844
38.90000,-12.96673,-64.92682
39.00000,-13.00003,-64.48853
39.10000,-13.03333,-64.40079
39.20000,-13.06676,-65.12735
39.30000,-13.09994,-65.03727
39.40000,-13.13330,-65.51472
39.50000,-13.16660,-65.53196
39.60000,-13.19997,-64.58018
39.70000,-13.23327,-65.61343
39.80000,-13.26663,-65.70704
39.90000,-13.30000,-66.11007
40.00000,-13.33336,-66.47903
40.10000,-13.36672,-65.56368
40.20000,-13.40014,-66.43908
40.30000,-13.43339,-65.98552
40.40000,-13.46663,-66.48334
40.50000,-13.49999,-67.17857
40.60000,-13.53335,-66.21152
40.70000,-13.56666,-66.49588
40.80000,-13.59984,-67.18327
40.90000,-13.63332,-67.10298
41.00000,-13.66674,-67.27375
41.10000,-13.69999,-66.17509
41.20000,-13.73329,-67.56124
41.30000,-13.76671,-66.97725
41.40000,-13.80007,-66.76653
41.50000,-13.83350,-67.04932
41.60000,-13.86674,-67.55889
41.70000,-13.89998,-67.27453
41.80000,-13.93329,-67.15115
41.90000,-13.96671,-67.91805
42.00000,-14.00013,-67.42454
42.10000,-14.03331,-67.04227
42.20000,-14.06668,-68.55767
42.30000,-14.09998,-68.23022
42.40000,-14.13328,-68.70455
42.50000,-14.16664,-68.92388
42.60000,-14.19995,-68.33206
42.70000,-14.23325,-67.67522
42.80000,-14.26661,-68.08217
42.90000,-14.30009,-68.13309
43.00000,-14.33346,-69.03473
43.10000,-14.36664,-68.05476
43.20000,-14.40000,-69.02337
43.30000,-14.43336,-69.41544
43.40000,-14.46661,-68.87218
43.50000,-14.50003,-68.95131
43.60000,-14.53339,-68.25725
43.70000,-14.56670,-68.74489
43.80000,-14.60000,-68.83811
43.90000,-14.63336,-67.97094
44.00000,-14.66672,-69.52080
44.10000,-14.70003,-69.02690
44.20000,-14.73339,-69.00614
44.30000,-14.76657,-69.87057
44.40000,-14.80005,-69.79067
44.50000,-14.83336,-69.19688
44.60000,-14.86660,-69.31556
44.70000,-14.89996,-68.97011
44.80000,-14.93344,-69.32027
44.90000,-14.96675,-68.57804
45.00000,-14.99999,-68.90274
45.10000,-15.03335,-69.31439
45.20000,-15.06671,-69.11816
45.30000,-15.10002,-69.75816
45.40000,-15.13332,-69.51571
45.50000,-15.16662,-68.97206
45.60000,-15.19993,-70.18979
45.70000,-15.23329,-69.49417
45.80000,-15.26671,-70.05466
45.90000,-15.30001,-69.20825
46.00000,-15.33326,-69.22234
46.10000,-15.36668,-69.77892
46.20000,-15.39998,-69.43894
46.30000,-15.43340,-69.59444
46.40000,-15.46659,-70.99586
46.50000,-15.49995,-69.73466
46.60000,-15.53325,-70.23953
46.70000,-15.56673,-70.35194
46.80000,-15.59998,-70.80981
46.90000,-15.63322,-70.01432
47.00000,-15.66670,-70.32570
47.10000,-15.70007,-70.73226
47.20000,-15.73331,-70.77613
47.30000,-15.76673,-70.67469
47.40000,-15.79997,-71.06088
47.50000,-15.83340,-70.06837
47.60000,-15.86676,-70.98176
47.70000,-15.90006,-71.35699
47.80000,-15.93336,-70.41343
47.90000,-15.96667,-70.29789
48.00000,-16.00003,-70.53916
48.10000,-16.03339,-70.18979
48.20000,-16.06675,-70.51370
48.30000,-16.09994,-70.88149
48.40000,-16.13324,-70.21172
48.50000,-16.16666,-70.87209
48.60000,-16.20003,-70.36526
48.70000,-16.23333,-70.57716
48.80000,-16.26663,-71.19091
48.90000,-16.30005,-70.53368
49.00000,-16.33336,-70.60223
49.10000,-16.36672,-70.93358
49.20000,-16.39996,-70.71425
49.30000,-16.43332,-53.89952
49.40000,-16.46669,-53.28224
49.50000,-16.49999,-52.75895
49.60000,-16.53335,-52.49340
49.70000,-16.56665,-52.95714
49.80000,-16.59996,-15.17591
49.90000,-16.63332,-5.32482
50.00000,-16.66662,-5.67420
50.10000,-16.69998,-4.86852
50.20000,-16.73329,-5.31973
50.30000,-16.76671,-4.45843
50.40000,-16.80007,-5.17599
50.50000,-16.83320,-4.58886
50.60000,-16.86662,-4.80468
50.70000,-16.89998,-5.49990
50.80000,-16.93334,-4.72830
50.90000,-16.96671,-5.38397
51.00000,-17.00001,-4.76433
51.10000,-17.03331,-4.84267
51.20000,-17.06661,-5.08747
51.30000,-17.09998,-5.06201
51.40000,-17.13334,-4.79880
51.50000,-17.16676,-3.88698
51.60000,-17.20000,-4.43415
51.70000,-17.23331,-5.12115
51.80000,-17.26655,-4.41731
51.90000,-17.30003,-4.37422
52.00000,-17.33345,-5.25981
52.10000,-17.36670,-5.23121
52.20000,-17.40000,-5.15170
52.30000,-17.43336,-4.56928
52.40000,-17.46667,-4.61941
52.50000,-17.49997,-3.70014
52.60000,-17.53327,-4.56771
52.70000,-17.56663,-4.89398
52.80000,-17.60000,-4.81603
52.90000,-17.63330,-4.80193
53.00000,-17.66654,-4.76903
53.10000,-17.69996,-4.39381
53.20000,-17.73327,-5.11136
53.30000,-17.76663,-4.88066
53.40000,-17.80005,-4.34328
53.50000,-17.83323,-4.83013
53.60000,-17.86666,-4.32722
53.70000,-17.90002,-4.23870
53.80000,-17.93332,-4.94059
53.90000,-17.96663,-4.40242
54.00000,-18.00005,-3.98999
54.10000,-18.03335,-4.79057
54.20000,-18.06671,-4.78940
54.30000,-18.10002,-4.16546
54.40000,-18.13344,-4.22264
54.47800,-18.15945,-4.28766
